condsFile,northOrSouth,stimFile1a,stimFile1b,stimFile2,stimFile3,stimFile4,stimFile5,QeggPainting1,Qcharacter1,Qgift1,QeggPainting2,Qcharacter2,Qgift2,Qname1,Qtheme1,Qname2,Qtheme2,block.thisRepN,block.thisTrialN,block.thisN,block.thisIndex,trials.thisRepN,trials.thisTrialN,trials.thisN,trials.thisIndex,noQtrials.thisRepN,noQtrials.thisTrialN,noQtrials.thisN,noQtrials.thisIndex,Qtrials.thisRepN,Qtrials.thisTrialN,Qtrials.thisN,Qtrials.thisIndex,text.started,text.stopped,prep_trigger.keys,prep_trigger.rt,prep_trigger.started,prep_trigger.stopped,waiting.started,waiting.stopped,trigger.keys,trigger.rt,trigger.started,trigger.stopped,image_2.started,image_2.stopped,trialNoQs.started,trialNoQs.stopped,vid1a.started,vid1a.stopped,vid1b.started,vid1b.stopped,vid2.started,vid2.stopped,vid3.started,vid3.stopped,vid4.started,vid4.stopped,vid5.started,vid5.stopped,ISI2.started,ISI2.stopped,vid1a_q.started,vid1a_q.stopped,vid1b_q.started,vid1b_q.stopped,vid2_q.started,vid2_q.stopped,l2q.started,l2q.stopped,vid3_q.started,vid3_q.stopped,l3q.started,l3q.stopped,vid4_q.started,vid4_q.stopped,vid5_q.started,vid5_q.stopped,key_resp_2.keys,key_resp_2.rt,key_resp_2.started,key_resp_2.stopped,key_resp_3.keys,key_resp_3.rt,key_resp_3.started,key_resp_3.stopped,ISI7.started,ISI7.stopped,nameQresp.keys,nameQresp.rt,nameQresp.started,nameQresp.stopped,nameQ1.started,nameQ1.stopped,nameQ2.started,nameQ2.stopped,eggPainting1.started,eggPainting1.stopped,eggPaintingQresp.keys,eggPaintingQresp.rt,eggPaintingQresp.started,eggPaintingQresp.stopped,eggPainting2.started,eggPainting2.stopped,character1.started,character1.stopped,character2.started,character2.stopped,Qcharacter.keys,Qcharacter.rt,Qcharacter.started,Qcharacter.stopped,themeQresp.keys,themeQresp.rt,themeQresp.started,themeQresp.stopped,themeQ1.started,themeQ1.stopped,themeQ2.started,themeQ2.stopped,gift1.started,gift1.stopped,gift2.started,gift2.stopped,giftQresp.keys,giftQresp.rt,giftQresp.started,giftQresp.stopped,northorsouth1.started,northorsouth1.stopped,northOrSouthQ.keys,northOrSouthQ.rt,northOrSouthQ.started,northOrSouthQ.stopped,northorsouth2.started,northorsouth2.stopped,session,participant,date,expName,psychopyVersion,frameRate,
,,,,,,,,,,,,,,,,,,,,,,,,,,,,,,,,,,7.722987116780132,None,g,0.42638356797397137,7.722987116780132,None,,,,,,,,,,,,,,,,,,,,,,,,,,,,,,,,,,,,,,,,,,,,,,,,,,,,,,,,,,,,,,,,,,,,,,,,,,,,,,,,,,,,,,,,,,,,,,,,,,,001,13,2019_Aug_27_1001,Block3,3.1.2,60.00027816871621,
,,,,,,,,,,,,,,,,,,,,,,,,,,,,,,,,,,,,,,,,8.156502187717706,None,equal,16.80248937290162,8.156502187717706,None,,,,,,,,,,,,,,,,,,,,,,,,,,,,,,,,,,,,,,,,,,,,,,,,,,,,,,,,,,,,,,,,,,,,,,,,,,,,,,,,,,,,,,,,,,,,,001,13,2019_Aug_27_1001,Block3,3.1.2,60.00027816871621,
videoBlock_schemaS_pathB_1.csv,south.png,stims/wedding-39.1a.mp4,stims/wedding-39.1b.mp4,stims/wedding-39.2b.mp4,stims/wedding-39.3a.mp4,stims/wedding-39.4b.mp4,stims/wedding-39.5.mp4,stimsday1details/newpainting7.png,stimsday1details/newperson19.png,stimsday1details/gift39.png,stimsday1details/painting39.png,stimsday1details/couple39.png,stimsday1details/new19.png,stimsday1details/n39.png,stimsday1details/t39.png,stimsday1details/cn39.png,stimsday1details/ct39.png,0,0,0,3,0,0,0,0,0,0,0,0,,,,,,,,,,,,,,,,,24.991238373797387,None,None,None,None,None,None,None,None,None,None,None,None,None,None,None,,,,,,,,,,,,,,,,,,,,,,,,,,,,,,,,,,,,,,,,,,,,,,,,,,,,,,,,,,,,,,,,,,,,,,,,,,,,,001,13,2019_Aug_27_1001,Block3,3.1.2,60.00027816871621,
videoBlock_schemaS_pathB_1.csv,south.png,stims/wedding-39.1a.mp4,stims/wedding-39.1b.mp4,stims/wedding-39.2b.mp4,stims/wedding-39.3a.mp4,stims/wedding-39.4b.mp4,stims/wedding-39.5.mp4,stimsday1details/newpainting7.png,stimsday1details/newperson19.png,stimsday1details/gift39.png,stimsday1details/painting39.png,stimsday1details/couple39.png,stimsday1details/new19.png,stimsday1details/n39.png,stimsday1details/t39.png,stimsday1details/cn39.png,stimsday1details/ct39.png,0,0,0,3,0,0,0,0,,,,,0,0,0,0,,,,,,,,,,,,,,,,,,,,,,,,,,,,,2.723524374887347,None,37.255700644571334,None,67.05614156788215,None,76.05520452465862,93.04321262799203,93.05496281990781,97.04302371991798,97.05587985180318,120.04279074398801,120.05554899387062,124.04315390903503,124.05523324664682,148.03867488680407,148.05516850575805,None,['2'],[3.5889783683232963],92.05581629602239,97.04302371991798,['2'],[2.58958628680557],119.05436388263479,124.04315390903503,,,,,,,,,,,,,,,,,,,,,,,,,,,,,,,,,,,,,,,,,,,,,,,,,,,001,13,2019_Aug_27_1001,Block3,3.1.2,60.00027816871621,
videoBlock_schemaS_pathB_1.csv,south.png,stims/wedding-39.1a.mp4,stims/wedding-39.1b.mp4,stims/wedding-39.2b.mp4,stims/wedding-39.3a.mp4,stims/wedding-39.4b.mp4,stims/wedding-39.5.mp4,stimsday1details/newpainting7.png,stimsday1details/newperson19.png,stimsday1details/gift39.png,stimsday1details/painting39.png,stimsday1details/couple39.png,stimsday1details/new19.png,stimsday1details/n39.png,stimsday1details/t39.png,stimsday1details/cn39.png,stimsday1details/ct39.png,0,0,0,3,0,0,0,0,,,,,,,,,,,,,,,,,,,,,,,,,,,,,,,,,,,,,,,,,,,,,,,,,,,,,,,,,,,,,,,2.8129201382398605e-05,None,1,1.0480169150978327,162.35818573180586,None,162.35818573180586,None,162.35818573180586,None,164.3548919269815,None,2,0.7341333916410804,164.3548919269815,None,164.3548919269815,None,166.35798761574551,None,166.35798761574551,None,2,1.10533583490178,166.35798761574551,None,1,1.051678781863302,168.35455336002633,None,168.35455336002633,None,168.35455336002633,None,170.35454673599452,None,170.35454673599452,None,1,1.0232920246198773,170.35454673599452,None,172.3544697407633,None,2,0.8350855060853064,172.3544697407633,None,172.3544697407633,None,001,13,2019_Aug_27_1001,Block3,3.1.2,60.00027816871621,
videoBlock_schemaS_pathA_1.csv,south.png,stims/wedding-14.1a.mp4,stims/wedding-14.1b.mp4,stims/wedding-14.2a.mp4,stims/wedding-14.3b.mp4,stims/wedding-14.4a.mp4,stims/wedding-14.5.mp4,stimsday1details/newegg7.png,stimsday1details/newperson7.png,stimsday1details/gift14.png,stimsday1details/egg14.png,stimsday1details/couple14.png,stimsday1details/new7.png,stimsday1details/n14.png,stimsday1details/t14.png,stimsday1details/cn14.png,stimsday1details/ct14.png,0,1,1,0,0,0,0,0,0,0,0,0,,,,,,,,,,,,,,,,,174.53748086700216,None,3.0707924240268767,None,184.10464142775163,213.53830754896626,213.55328888166696,None,222.55457364581525,None,239.5528736896813,262.5370183456689,262.55323140788823,286.53720477363095,286.55233671469614,None,,,,,,,,,,,,,,,,,,,,,,,,,,,,,,,,,,,,,,,,,,,,,,,,,,,,,,,,,,,,,,,,,,,,,,,,,,,,,001,13,2019_Aug_27_1001,Block3,3.1.2,60.00027816871621,
videoBlock_schemaS_pathA_1.csv,south.png,stims/wedding-14.1a.mp4,stims/wedding-14.1b.mp4,stims/wedding-14.2a.mp4,stims/wedding-14.3b.mp4,stims/wedding-14.4a.mp4,stims/wedding-14.5.mp4,stimsday1details/newegg7.png,stimsday1details/newperson7.png,stimsday1details/gift14.png,stimsday1details/egg14.png,stimsday1details/couple14.png,stimsday1details/new7.png,stimsday1details/n14.png,stimsday1details/t14.png,stimsday1details/cn14.png,stimsday1details/ct14.png,0,1,1,0,0,0,0,0,,,,,0,0,0,0,,,,,,,,,,,,,,,,,,,,,,,,,,,,,None,None,None,None,None,None,None,None,None,None,None,None,None,None,None,None,None,None,None,,None,None,None,,None,None,,,,,,,,,,,,,,,,,,,,,,,,,,,,,,,,,,,,,,,,,,,,,,,,,,,001,13,2019_Aug_27_1001,Block3,3.1.2,60.00027816871621,
videoBlock_schemaS_pathA_1.csv,south.png,stims/wedding-14.1a.mp4,stims/wedding-14.1b.mp4,stims/wedding-14.2a.mp4,stims/wedding-14.3b.mp4,stims/wedding-14.4a.mp4,stims/wedding-14.5.mp4,stimsday1details/newegg7.png,stimsday1details/newperson7.png,stimsday1details/gift14.png,stimsday1details/egg14.png,stimsday1details/couple14.png,stimsday1details/new7.png,stimsday1details/n14.png,stimsday1details/t14.png,stimsday1details/cn14.png,stimsday1details/ct14.png,0,1,1,0,0,0,0,0,,,,,,,,,,,,,,,,,,,,,,,,,,,,,,,,,,,,,,,,,,,,,,,,,,,,,,,,,,,,,,,3.5754870623350143e-05,None,1,1.1273389388807118,304.07692764373496,None,304.07692764373496,None,304.07692764373496,None,306.06869854498655,None,2,0.7029110100120306,306.06869854498655,None,306.06869854498655,None,308.0733979810029,None,308.0733979810029,None,2,1.6651969724334776,308.0733979810029,None,1,1.0013002241030335,310.06967446999624,None,310.06967446999624,None,310.06967446999624,None,312.06887034885585,None,312.06887034885585,None,1,0.918587660882622,312.06887034885585,None,314.0688275815919,None,2,0.7395923798903823,314.0688275815919,None,314.0688275815919,None,001,13,2019_Aug_27_1001,Block3,3.1.2,60.00027816871621,
videoBlock_schemaS_pathA_2.csv,south.png,stims/wedding-25.1a.mp4,stims/wedding-25.1b.mp4,stims/wedding-25.2a.mp4,stims/wedding-25.3b.mp4,stims/wedding-25.4a.mp4,stims/wedding-25.5.mp4,stimsday1details/egg25.png,stimsday1details/couple25.png,stimsday1details/gift25.png,stimsday1details/newegg8.png,stimsday1details/newperson8.png,stimsday1details/new8.png,stimsday1details/cn25.png,stimsday1details/ct25.png,stimsday1details/n25.png,stimsday1details/t25.png,0,2,2,1,0,0,0,0,0,0,0,0,,,,,,,,,,,,,,,,,316.3033650727011,None,3.1600841470062733,None,325.9695920017548,355.30336580472067,355.31968339392915,None,364.3193105487153,None,381.31968134688213,404.3064670986496,404.3187124687247,428.3056803829968,428.3182093547657,None,,,,,,,,,,,,,,,,,,,,,,,,,,,,,,,,,,,,,,,,,,,,,,,,,,,,,,,,,,,,,,,,,,,,,,,,,,,,,001,13,2019_Aug_27_1001,Block3,3.1.2,60.00027816871621,
videoBlock_schemaS_pathA_2.csv,south.png,stims/wedding-25.1a.mp4,stims/wedding-25.1b.mp4,stims/wedding-25.2a.mp4,stims/wedding-25.3b.mp4,stims/wedding-25.4a.mp4,stims/wedding-25.5.mp4,stimsday1details/egg25.png,stimsday1details/couple25.png,stimsday1details/gift25.png,stimsday1details/newegg8.png,stimsday1details/newperson8.png,stimsday1details/new8.png,stimsday1details/cn25.png,stimsday1details/ct25.png,stimsday1details/n25.png,stimsday1details/t25.png,0,2,2,1,0,0,0,0,,,,,0,0,0,0,,,,,,,,,,,,,,,,,,,,,,,,,,,,,None,None,None,None,None,None,None,None,None,None,None,None,None,None,None,None,None,None,None,,None,None,None,,None,None,,,,,,,,,,,,,,,,,,,,,,,,,,,,,,,,,,,,,,,,,,,,,,,,,,,001,13,2019_Aug_27_1001,Block3,3.1.2,60.00027816871621,
videoBlock_schemaS_pathA_2.csv,south.png,stims/wedding-25.1a.mp4,stims/wedding-25.1b.mp4,stims/wedding-25.2a.mp4,stims/wedding-25.3b.mp4,stims/wedding-25.4a.mp4,stims/wedding-25.5.mp4,stimsday1details/egg25.png,stimsday1details/couple25.png,stimsday1details/gift25.png,stimsday1details/newegg8.png,stimsday1details/newperson8.png,stimsday1details/new8.png,stimsday1details/cn25.png,stimsday1details/ct25.png,stimsday1details/n25.png,stimsday1details/t25.png,0,2,2,1,0,0,0,0,,,,,,,,,,,,,,,,,,,,,,,,,,,,,,,,,,,,,,,,,,,,,,,,,,,,,,,,,,,,,,,3.7454068660736084e-05,None,2,1.1847970900125802,445.67242641793564,None,445.67242641793564,None,445.67242641793564,None,447.6679035127163,None,1,0.7184675373136997,447.6679035127163,None,447.6679035127163,None,449.67145690787584,None,449.67145690787584,None,1,0.7633930658921599,449.67145690787584,None,2,1.5481399577111006,451.6716428529471,None,451.6716428529471,None,451.6716428529471,None,453.66801358386874,None,453.66801358386874,None,1,0.8845989070832729,453.66801358386874,None,455.6680005886592,None,2,1.1223089760169387,455.6680005886592,None,455.6680005886592,None,001,13,2019_Aug_27_1001,Block3,3.1.2,60.00027816871621,
videoBlock_schemaS_pathB_2.csv,south.png,stims/wedding-32.1a.mp4,stims/wedding-32.1b.mp4,stims/wedding-32.2b.mp4,stims/wedding-32.3a.mp4,stims/wedding-32.4b.mp4,stims/wedding-32.5.mp4,stimsday1details/newpainting8.png,stimsday1details/newperson20.png,stimsday1details/new20.png,stimsday1details/painting32.png,stimsday1details/couple32.png,stimsday1details/gift32.png,stimsday1details/n32.png,stimsday1details/t32.png,stimsday1details/cn32.png,stimsday1details/ct32.png,0,3,3,4,0,0,0,0,0,0,0,0,,,,,,,,,,,,,,,,,457.9182009608485,None,2.9346140190027654,None,467.350257569924,496.91758229769766,496.93293382273987,None,505.9332834817469,None,522.932902420871,545.9201532248408,545.9335648189299,569.9175396920182,569.9334486518055,None,,,,,,,,,,,,,,,,,,,,,,,,,,,,,,,,,,,,,,,,,,,,,,,,,,,,,,,,,,,,,,,,,,,,,,,,,,,,,001,13,2019_Aug_27_1001,Block3,3.1.2,60.00027816871621,
videoBlock_schemaS_pathB_2.csv,south.png,stims/wedding-32.1a.mp4,stims/wedding-32.1b.mp4,stims/wedding-32.2b.mp4,stims/wedding-32.3a.mp4,stims/wedding-32.4b.mp4,stims/wedding-32.5.mp4,stimsday1details/newpainting8.png,stimsday1details/newperson20.png,stimsday1details/new20.png,stimsday1details/painting32.png,stimsday1details/couple32.png,stimsday1details/gift32.png,stimsday1details/n32.png,stimsday1details/t32.png,stimsday1details/cn32.png,stimsday1details/ct32.png,0,3,3,4,0,0,0,0,,,,,0,0,0,0,,,,,,,,,,,,,,,,,,,,,,,,,,,,,None,None,None,None,None,None,None,None,None,None,None,None,None,None,None,None,None,None,None,,None,None,None,,None,None,,,,,,,,,,,,,,,,,,,,,,,,,,,,,,,,,,,,,,,,,,,,,,,,,,,001,13,2019_Aug_27_1001,Block3,3.1.2,60.00027816871621,
videoBlock_schemaS_pathB_2.csv,south.png,stims/wedding-32.1a.mp4,stims/wedding-32.1b.mp4,stims/wedding-32.2b.mp4,stims/wedding-32.3a.mp4,stims/wedding-32.4b.mp4,stims/wedding-32.5.mp4,stimsday1details/newpainting8.png,stimsday1details/newperson20.png,stimsday1details/new20.png,stimsday1details/painting32.png,stimsday1details/couple32.png,stimsday1details/gift32.png,stimsday1details/n32.png,stimsday1details/t32.png,stimsday1details/cn32.png,stimsday1details/ct32.png,0,3,3,4,0,0,0,0,,,,,,,,,,,,,,,,,,,,,,,,,,,,,,,,,,,,,,,,,,,,,,,,,,,,,,,,,,,,,,,3.264285624027252e-05,None,1,1.1117600817233324,585.738896086812,None,585.738896086812,None,585.738896086812,None,587.7323344666511,None,2,0.6507738730870187,587.7323344666511,None,587.7323344666511,None,589.7365747275762,None,589.7365747275762,None,2,0.8310162061825395,589.7365747275762,None,1,1.4060942339710891,591.7327001038939,None,591.7327001038939,None,591.7327001038939,None,593.7359435525723,None,593.7359435525723,None,2,0.6476489272899926,593.7359435525723,None,595.7323824996129,None,2,0.7525076079182327,595.7323824996129,None,595.7323824996129,None,001,13,2019_Aug_27_1001,Block3,3.1.2,60.00027816871621,
videoBlock_schemaS_pathA_3.csv,south.png,stims/wedding-36.1a.mp4,stims/wedding-36.1b.mp4,stims/wedding-36.2a.mp4,stims/wedding-36.3b.mp4,stims/wedding-36.4a.mp4,stims/wedding-36.5.mp4,stimsday1details/egg36.png,stimsday1details/couple36.png,stimsday1details/gift36.png,stimsday1details/newegg9.png,stimsday1details/newperson9.png,stimsday1details/new9.png,stimsday1details/n36.png,stimsday1details/t36.png,stimsday1details/cn36.png,stimsday1details/ct36.png,0,4,4,2,0,0,0,0,0,0,0,0,,,,,,,,,,,,,,,,,598.0165239837952,None,3.0132131772115827,None,607.5319133508019,None,637.016885262914,646.0196754108183,646.0196754108183,663.0152869829908,663.0152869829908,686.0206337668933,686.0320099839009,None,710.0317085767165,None,,,,,,,,,,,,,,,,,,,,,,,,,,,,,,,,,,,,,,,,,,,,,,,,,,,,,,,,,,,,,,,,,,,,,,,,,,,,,001,13,2019_Aug_27_1001,Block3,3.1.2,60.00027816871621,
videoBlock_schemaS_pathA_3.csv,south.png,stims/wedding-36.1a.mp4,stims/wedding-36.1b.mp4,stims/wedding-36.2a.mp4,stims/wedding-36.3b.mp4,stims/wedding-36.4a.mp4,stims/wedding-36.5.mp4,stimsday1details/egg36.png,stimsday1details/couple36.png,stimsday1details/gift36.png,stimsday1details/newegg9.png,stimsday1details/newperson9.png,stimsday1details/new9.png,stimsday1details/n36.png,stimsday1details/t36.png,stimsday1details/cn36.png,stimsday1details/ct36.png,0,4,4,2,0,0,0,0,,,,,0,0,0,0,,,,,,,,,,,,,,,,,,,,,,,,,,,,,None,None,None,None,None,None,None,None,None,None,None,None,None,None,None,None,None,None,None,,None,None,None,,None,None,,,,,,,,,,,,,,,,,,,,,,,,,,,,,,,,,,,,,,,,,,,,,,,,,,,001,13,2019_Aug_27_1001,Block3,3.1.2,60.00027816871621,
videoBlock_schemaS_pathA_3.csv,south.png,stims/wedding-36.1a.mp4,stims/wedding-36.1b.mp4,stims/wedding-36.2a.mp4,stims/wedding-36.3b.mp4,stims/wedding-36.4a.mp4,stims/wedding-36.5.mp4,stimsday1details/egg36.png,stimsday1details/couple36.png,stimsday1details/gift36.png,stimsday1details/newegg9.png,stimsday1details/newperson9.png,stimsday1details/new9.png,stimsday1details/n36.png,stimsday1details/t36.png,stimsday1details/cn36.png,stimsday1details/ct36.png,0,4,4,2,0,0,0,0,,,,,,,,,,,,,,,,,,,,,,,,,,,,,,,,,,,,,,,,,,,,,,,,,,,,,,,,,,,,,,,4.060985520482063e-05,None,1,1.3528315760195255,728.1636379868723,None,728.1636379868723,None,728.1636379868723,None,730.1477979486808,None,1,0.651636887807399,730.1477979486808,None,730.1477979486808,None,732.1472602598369,None,732.1472602598369,None,1,0.8519430132582784,732.1472602598369,None,1,1.1684880908578634,734.1518209897913,None,734.1518209897913,None,734.1518209897913,None,736.1480036280118,None,736.1480036280118,None,1,1.222715909127146,736.1480036280118,None,738.1562604405917,None,2,0.7646860163658857,738.1562604405917,None,738.1562604405917,None,001,13,2019_Aug_27_1001,Block3,3.1.2,60.00027816871621,
videoBlock_schemaS_pathB_3.csv,south.png,stims/wedding-41.1a.mp4,stims/wedding-41.1b.mp4,stims/wedding-41.2b.mp4,stims/wedding-41.3a.mp4,stims/wedding-41.4b.mp4,stims/wedding-41.5.mp4,stimsday1details/painting41.png,stimsday1details/couple41.png,stimsday1details/new21.png,stimsday1details/newpainting9.png,stimsday1details/newperson21.png,stimsday1details/gift41.png,stimsday1details/cn41.png,stimsday1details/t41.png,stimsday1details/n41.png,stimsday1details/ct41.png,0,5,5,5,0,0,0,0,0,0,0,0,,,,,,,,,,,,,,,,,740.4635974429548,None,None,None,None,None,None,None,None,None,None,None,None,None,None,None,,,,,,,,,,,,,,,,,,,,,,,,,,,,,,,,,,,,,,,,,,,,,,,,,,,,,,,,,,,,,,,,,,,,,,,,,,,,,001,13,2019_Aug_27_1001,Block3,3.1.2,60.00027816871621,
videoBlock_schemaS_pathB_3.csv,south.png,stims/wedding-41.1a.mp4,stims/wedding-41.1b.mp4,stims/wedding-41.2b.mp4,stims/wedding-41.3a.mp4,stims/wedding-41.4b.mp4,stims/wedding-41.5.mp4,stimsday1details/painting41.png,stimsday1details/couple41.png,stimsday1details/new21.png,stimsday1details/newpainting9.png,stimsday1details/newperson21.png,stimsday1details/gift41.png,stimsday1details/cn41.png,stimsday1details/t41.png,stimsday1details/n41.png,stimsday1details/ct41.png,0,5,5,5,0,0,0,0,,,,,0,0,0,0,,,,,,,,,,,,,,,,,,,,,,,,,,,,,2.980491081252694,None,753.1630431478843,782.6844756565988,782.6972785606049,791.6798479668796,791.6977382069454,None,808.6961768725887,812.6839219508693,812.6960683437064,835.67906841496,835.6996126025915,839.6799224796705,839.6967672286555,None,863.6955706519075,None,['1'],[3.8902084501460195],807.6966107715853,812.6839219508693,['2'],[3.256367383059114],834.6957422466949,839.6799224796705,,,,,,,,,,,,,,,,,,,,,,,,,,,,,,,,,,,,,,,,,,,,,,,,,,,001,13,2019_Aug_27_1001,Block3,3.1.2,60.00027816871621,
videoBlock_schemaS_pathB_3.csv,south.png,stims/wedding-41.1a.mp4,stims/wedding-41.1b.mp4,stims/wedding-41.2b.mp4,stims/wedding-41.3a.mp4,stims/wedding-41.4b.mp4,stims/wedding-41.5.mp4,stimsday1details/painting41.png,stimsday1details/couple41.png,stimsday1details/new21.png,stimsday1details/newpainting9.png,stimsday1details/newperson21.png,stimsday1details/gift41.png,stimsday1details/cn41.png,stimsday1details/t41.png,stimsday1details/n41.png,stimsday1details/ct41.png,0,5,5,5,0,0,0,0,,,,,,,,,,,,,,,,,,,,,,,,,,,,,,,,,,,,,,,,,,,,,,,,,,,,,,,,,,,,,,,4.262896254658699e-05,None,2,0.8994998158887029,878.9654297926463,None,878.9654297926463,None,878.9654297926463,None,880.9628024809062,None,1,0.6022240379825234,880.9628024809062,None,880.9628024809062,None,882.9716813759878,None,882.9716813759878,None,1,1.1146346689201891,882.9716813759878,None,1,0.9655646933242679,884.970745538827,None,884.970745538827,None,884.970745538827,None,886.9709084196948,None,886.9709084196948,None,2,0.7965076752007008,886.9709084196948,None,888.9660081146285,None,2,1.131928209681064,888.9660081146285,None,888.9660081146285,None,001,13,2019_Aug_27_1001,Block3,3.1.2,60.00027816871621,
