leftimage,rightimage,trials.thisRepN,trials.thisTrialN,trials.thisN,trials.thisIndex,leftimageLoc.started,leftimageLoc.stopped,rightimageLoc.started,rightimageLoc.stopped,answer.keys,answer.rt,answer.started,answer.stopped,Q.started,Q.stopped,ITIfixation.started,ITIfixation.stopped,session,participant,date,expName,psychopyVersion,frameRate,
stimsday2details/wedding17.png,stimsday2details/wedding6.png,0,0,0,2,9.55086782699982,None,9.55086782699982,None,k,6.162643540999852,9.55086782699982,None,9.55086782699982,None,15.767740579999554,None,001,28,2019_Nov_19_1055,sequencetask,3.1.3,59.987796922226444,
stimsday2details/wedding20.png,stimsday2details/wedding38.png,0,1,1,19,17.56597758299995,None,17.56597758299995,None,l,7.137517656000455,17.56597758299995,None,17.56597758299995,None,24.732734105999953,None,001,28,2019_Nov_19_1055,sequencetask,3.1.3,59.987796922226444,
stimsday2details/wedding20.png,stimsday2details/wedding23.png,0,2,2,9,26.504753571999572,None,26.504753571999572,None,k,10.288206008000088,26.504753571999572,None,26.504753571999572,None,36.81612796900026,None,001,28,2019_Nov_19_1055,sequencetask,3.1.3,59.987796922226444,
stimsday2details/wedding28.png,stimsday2details/wedding17.png,0,3,3,1,38.59924555099951,None,38.59924555099951,None,k,4.990026343999489,38.59924555099951,None,38.59924555099951,None,43.61624380899957,None,001,28,2019_Nov_19_1055,sequencetask,3.1.3,59.987796922226444,
stimsday2details/wedding1.png,stimsday2details/wedding34.png,0,4,4,6,45.43299016099991,None,45.43299016099991,None,k,5.671156489999703,45.43299016099991,None,45.43299016099991,None,51.13239353300014,None,001,28,2019_Nov_19_1055,sequencetask,3.1.3,59.987796922226444,
stimsday2details/wedding28.png,stimsday2details/wedding22.png,0,5,5,11,52.900577354000234,None,52.900577354000234,None,l,3.109492794000289,52.900577354000234,None,52.900577354000234,None,56.032844010999725,None,001,28,2019_Nov_19_1055,sequencetask,3.1.3,59.987796922226444,
stimsday2details/wedding38.png,stimsday2details/wedding20.png,0,6,6,8,57.75463178799964,None,57.75463178799964,None,l,14.313570555999831,57.75463178799964,None,57.75463178799964,None,72.09880430999965,None,001,28,2019_Nov_19_1055,sequencetask,3.1.3,59.987796922226444,
stimsday2details/wedding6.png,stimsday2details/wedding2.png,0,7,7,3,73.88201153499995,None,73.88201153499995,None,k,9.397726463999788,73.88201153499995,None,73.88201153499995,None,83.29883124800017,None,001,28,2019_Nov_19_1055,sequencetask,3.1.3,59.987796922226444,
stimsday2details/wedding2.png,stimsday2details/wedding19.png,0,8,8,4,85.08217256700027,None,85.08217256700027,None,k,3.313305071999821,85.08217256700027,None,85.08217256700027,None,88.41562153599989,None,001,28,2019_Nov_19_1055,sequencetask,3.1.3,59.987796922226444,
stimsday2details/wedding1.png,stimsday2details/wedding19.png,0,9,9,16,90.1485350060002,None,90.1485350060002,None,l,4.20167159399989,90.1485350060002,None,90.1485350060002,None,94.38170296999942,None,001,28,2019_Nov_19_1055,sequencetask,3.1.3,59.987796922226444,
stimsday2details/wedding2.png,stimsday2details/wedding6.png,0,10,10,14,96.11498931799997,None,96.11498931799997,None,l,16.189458998999726,96.11498931799997,None,96.11498931799997,None,112.33148687199991,None,001,28,2019_Nov_19_1055,sequencetask,3.1.3,59.987796922226444,
stimsday2details/wedding19.png,stimsday2details/wedding1.png,0,11,11,5,114.05322509599955,None,114.05322509599955,None,k,3.8446628749998126,114.05322509599955,None,114.05322509599955,None,117.91531693199977,None,001,28,2019_Nov_19_1055,sequencetask,3.1.3,59.987796922226444,
stimsday2details/wedding22.png,stimsday2details/wedding28.png,0,12,12,0,119.63444118299958,None,119.63444118299958,None,k,1.9398737819992675,119.63444118299958,None,119.63444118299958,None,121.5980289199997,None,001,28,2019_Nov_19_1055,sequencetask,3.1.3,59.987796922226444,
stimsday2details/wedding23.png,stimsday2details/wedding20.png,0,13,13,20,123.31504239500009,None,123.31504239500009,None,l,10.214556714000537,123.31504239500009,None,123.31504239500009,None,133.54815368900017,None,001,28,2019_Nov_19_1055,sequencetask,3.1.3,59.987796922226444,
stimsday2details/wedding29.png,stimsday2details/wedding23.png,0,14,14,21,135.31494681200002,None,135.31494681200002,None,l,11.44335750099981,135.31494681200002,None,135.31494681200002,None,146.781409145,None,001,28,2019_Nov_19_1055,sequencetask,3.1.3,59.987796922226444,
stimsday2details/wedding34.png,stimsday2details/wedding1.png,0,15,15,17,148.50203591299942,None,148.50203591299942,None,l,4.150115419999565,148.50203591299942,None,148.50203591299942,None,152.68109890599953,None,001,28,2019_Nov_19_1055,sequencetask,3.1.3,59.987796922226444,
stimsday2details/wedding17.png,stimsday2details/wedding28.png,0,16,16,12,154.4145595250002,None,154.4145595250002,None,k,12.056656103000023,154.4145595250002,None,154.4145595250002,None,166.531272704,None,001,28,2019_Nov_19_1055,sequencetask,3.1.3,59.987796922226444,
stimsday2details/wedding6.png,stimsday2details/wedding17.png,0,17,17,13,168.2336769450003,None,168.2336769450003,None,l,4.217367932999878,168.2336769450003,None,168.2336769450003,None,172.48094199800016,None,001,28,2019_Nov_19_1055,sequencetask,3.1.3,59.987796922226444,
stimsday2details/wedding23.png,stimsday2details/wedding29.png,0,18,18,10,174.21370729799946,None,174.21370729799946,None,k,6.354818484000134,174.21370729799946,None,174.21370729799946,None,180.59734064300028,None,001,28,2019_Nov_19_1055,sequencetask,3.1.3,59.987796922226444,
stimsday2details/wedding38.png,stimsday2details/wedding34.png,0,19,19,18,182.32037130200024,None,182.32037130200024,None,l,11.69862223400014,182.32037130200024,None,182.32037130200024,None,194.04752208299942,None,001,28,2019_Nov_19_1055,sequencetask,3.1.3,59.987796922226444,
stimsday2details/wedding34.png,stimsday2details/wedding38.png,0,20,20,7,195.7661482829999,None,195.7661482829999,None,k,2.6726575759994375,195.7661482829999,None,195.7661482829999,None,198.46382123999956,None,001,28,2019_Nov_19_1055,sequencetask,3.1.3,59.987796922226444,
stimsday2details/wedding19.png,stimsday2details/wedding2.png,0,21,21,15,200.19716941499973,None,200.19716941499973,None,l,6.661368420000144,200.19716941499973,None,200.19716941499973,None,206.8804310759997,None,001,28,2019_Nov_19_1055,sequencetask,3.1.3,59.987796922226444,
