northOrSouth,stimFile1a,stimFile1b,stimFile2,stimFile3,stimFile4,stimFile5,Qeggpainting1,Qeggpainting2,Qcharacter1,Qcharacter2,Qgift1,Qgift2,Qname1,Qname2,Qtheme1,Qtheme2,trials.thisRepN,trials.thisTrialN,trials.thisN,trials.thisIndex,South.thisRepN,South.thisTrialN,South.thisN,South.thisIndex,North.thisRepN,North.thisTrialN,North.thisN,North.thisIndex,noQtrials.thisRepN,noQtrials.thisTrialN,noQtrials.thisN,noQtrials.thisIndex,Qtrials.thisRepN,Qtrials.thisTrialN,Qtrials.thisN,Qtrials.thisIndex,text.started,text.stopped,prep_trigger.keys,prep_trigger.rt,prep_trigger.started,prep_trigger.stopped,waiting.started,waiting.stopped,trigger.keys,trigger.rt,trigger.started,trigger.stopped,southCueImage.started,southCueImage.stopped,northCueImage.started,northCueImage.stopped,trialNoQs.started,trialNoQs.stopped,vid1a.started,vid1a.stopped,vid1b.started,vid1b.stopped,vid2.started,vid2.stopped,vid3.started,vid3.stopped,vid4.started,vid4.stopped,vid5.started,vid5.stopped,ISI2.started,ISI2.stopped,vid1a_q.started,vid1a_q.stopped,vid1b_q.started,vid1b_q.stopped,vid2_q.started,vid2_q.stopped,l2q.started,l2q.stopped,vid3_q.started,vid3_q.stopped,l3q.started,l3q.stopped,vid4_q.started,vid4_q.stopped,vid5_q.started,vid5_q.stopped,key_resp_2.keys,key_resp_2.rt,key_resp_2.started,key_resp_2.stopped,key_resp_3.keys,key_resp_3.rt,key_resp_3.started,key_resp_3.stopped,ISI7.started,ISI7.stopped,nameQresp.keys,nameQresp.rt,nameQresp.started,nameQresp.stopped,nameQ1.started,nameQ1.stopped,nameQ2.started,nameQ2.stopped,eggPainting1.started,eggPainting1.stopped,eggPaintingQresp.keys,eggPaintingQresp.rt,eggPaintingQresp.started,eggPaintingQresp.stopped,eggPainting2.started,eggPainting2.stopped,character1.started,character1.stopped,character2.started,character2.stopped,Qcharacter.keys,Qcharacter.rt,Qcharacter.started,Qcharacter.stopped,themeQresp.keys,themeQresp.rt,themeQresp.started,themeQresp.stopped,themeQ1.started,themeQ1.stopped,themeQ2.started,themeQ2.stopped,gift1.started,gift1.stopped,gift2.started,gift2.stopped,giftQresp.keys,giftQresp.rt,giftQresp.started,giftQresp.stopped,northorsouth1.started,northorsouth1.stopped,northorsouth2.started,northorsouth2.stopped,northOrSouthQ.keys,northOrSouthQ.rt,northOrSouthQ.started,northOrSouthQ.stopped,session,participant,date,expName,psychopyVersion,frameRate,
,,,,,,,,,,,,,,,,,,,,,,,,,,,,,,,,,,,,,9.090617171954364,None,g,1.7879739860072732,9.090617171954364,None,,,,,,,,,,,,,,,,,,,,,,,,,,,,,,,,,,,,,,,,,,,,,,,,,,,,,,,,,,,,,,,,,,,,,,,,,,,,,,,,,,,,,,,,,,,,,,,,,,,,,001,28,2019_Nov_19_1000,viewing,3.1.2,59.63301322634205,
,,,,,,,,,,,,,,,,,,,,,,,,,,,,,,,,,,,,,,,,,,,10.890268865041435,None,equal,15.490302827209234,10.890268865041435,None,,,,,,,,,,,,,,,,,,,,,,,,,,,,,,,,,,,,,,,,,,,,,,,,,,,,,,,,,,,,,,,,,,,,,,,,,,,,,,,,,,,,,,,,,,,,,,,001,28,2019_Nov_19_1000,viewing,3.1.2,59.63301322634205,
south.png,stims/wedding-22.1a.mp4,stims/wedding-22.1b.mp4,stims/wedding-22.2b.mp4,stims/wedding-22.3a.mp4,stims/wedding-22.4b.mp4,stims/wedding-22.5.mp4,stimsday2details/painting22.png,stimsday2details/newpainting13.png,stimsday2details/couple22.png,stimsday2details/newperson25.png,stimsday2details/gift22.png,stimsday2details/new25.png,stimsday2details/n22.png,stimsday2details/cn22.png,stimsday2details/ct22.png,stimsday2details/t22.png,0,0,0,0,0,0,0,0,,,,,,,,,,,,,,,,,,,,,,,,,26.416061565745622,None,,,,,,,,,,,,,,,,,,,,,,,,,,,,,,,,,,,,,,,,,,,,,,,,,,,,,,,,,,,,,,,,,,,,,,,,,,,,,,,,,,,,,,,,,,,,,001,28,2019_Nov_19_1000,viewing,3.1.2,59.63301322634205,
south.png,stims/wedding-22.1a.mp4,stims/wedding-22.1b.mp4,stims/wedding-22.2b.mp4,stims/wedding-22.3a.mp4,stims/wedding-22.4b.mp4,stims/wedding-22.5.mp4,stimsday2details/painting22.png,stimsday2details/newpainting13.png,stimsday2details/couple22.png,stimsday2details/newperson25.png,stimsday2details/gift22.png,stimsday2details/new25.png,stimsday2details/n22.png,stimsday2details/cn22.png,stimsday2details/ct22.png,stimsday2details/t22.png,0,0,0,0,,,,,0,0,0,0,,,,,,,,,,,,,,,,,,,,,,,None,None,,,,,,,,,,,,,,,,,,,,,,,,,,,,,,,,,,,,,,,,,,,,,,,,,,,,,,,,,,,,,,,,,,,,,,,,,,,,,,,,,,,,,,,,,,,001,28,2019_Nov_19_1000,viewing,3.1.2,59.63301322634205,
south.png,stims/wedding-22.1a.mp4,stims/wedding-22.1b.mp4,stims/wedding-22.2b.mp4,stims/wedding-22.3a.mp4,stims/wedding-22.4b.mp4,stims/wedding-22.5.mp4,stimsday2details/painting22.png,stimsday2details/newpainting13.png,stimsday2details/couple22.png,stimsday2details/newperson25.png,stimsday2details/gift22.png,stimsday2details/new25.png,stimsday2details/n22.png,stimsday2details/cn22.png,stimsday2details/ct22.png,stimsday2details/t22.png,0,0,0,0,,,,,,,,,0,0,0,0,,,,,,,,,,,,,,,,,,,,,None,None,None,None,None,None,None,None,None,None,None,None,None,None,,,,,,,,,,,,,,,,,,,,,,,,,,,,,,,,,,,,,,,,,,,,,,,,,,,,,,,,,,,,,,,,,,,,,,,,,,,,,001,28,2019_Nov_19_1000,viewing,3.1.2,59.63301322634205,
south.png,stims/wedding-22.1a.mp4,stims/wedding-22.1b.mp4,stims/wedding-22.2b.mp4,stims/wedding-22.3a.mp4,stims/wedding-22.4b.mp4,stims/wedding-22.5.mp4,stimsday2details/painting22.png,stimsday2details/newpainting13.png,stimsday2details/couple22.png,stimsday2details/newperson25.png,stimsday2details/gift22.png,stimsday2details/new25.png,stimsday2details/n22.png,stimsday2details/cn22.png,stimsday2details/ct22.png,stimsday2details/t22.png,0,0,0,0,,,,,,,,,,,,,0,0,0,0,,,,,,,,,,,,,,,,,,,,,,,,,,,,,,,2.783899030648172,None,39.27435396099463,64.49395282380283,64.50746748503298,None,73.4896825007163,None,90.50724073499441,94.49391327705234,94.50696033611894,117.49443301698193,117.50679248478264,121.49364384217188,121.50666150683537,None,145.50637533701956,None,['2'],[3.4178284839726985],89.50784094305709,94.49391327705234,['3'],[2.6375831770710647],116.50762741314247,121.49364384217188,,,,,,,,,,,,,,,,,,,,,,,,,,,,,,,,,,,,,,,,,,,,,,,,,,,001,28,2019_Nov_19_1000,viewing,3.1.2,59.63301322634205,
south.png,stims/wedding-22.1a.mp4,stims/wedding-22.1b.mp4,stims/wedding-22.2b.mp4,stims/wedding-22.3a.mp4,stims/wedding-22.4b.mp4,stims/wedding-22.5.mp4,stimsday2details/painting22.png,stimsday2details/newpainting13.png,stimsday2details/couple22.png,stimsday2details/newperson25.png,stimsday2details/gift22.png,stimsday2details/new25.png,stimsday2details/n22.png,stimsday2details/cn22.png,stimsday2details/ct22.png,stimsday2details/t22.png,0,0,0,0,,,,,,,,,,,,,,,,,,,,,,,,,,,,,,,,,,,,,,,,,,,,,,,,,,,,,,,,,,,,,,,,,,,,,,,,,3.421911969780922e-05,None,2,0.9821698507294059,166.0250887768343,None,166.0250887768343,None,166.0250887768343,None,168.02240827772766,None,2,0.7511745332740247,168.02240827772766,None,168.02240827772766,None,170.02211075881496,None,170.02211075881496,None,2,0.802334395237267,170.02211075881496,None,3,1.8847453161142766,172.02232069615275,None,172.02232069615275,None,172.02232069615275,None,174.02238602703437,None,174.02238602703437,None,2,0.8730548857711256,174.02238602703437,None,176.02235282910988,None,176.02235282910988,None,3,0.735438862349838,176.02235282910988,None,001,28,2019_Nov_19_1000,viewing,3.1.2,59.63301322634205,
north.png,stims/wedding-28.1a.mp4,stims/wedding-28.1b.mp4,stims/wedding-28.2a.mp4,stims/wedding-28.3a.mp4,stims/wedding-28.4a.mp4,stims/wedding-28.5.mp4,stimsday2details/newegg13.png,stimsday2details/egg28.png,stimsday2details/couple28.png,stimsday2details/newperson26.png,stimsday2details/gift28.png,stimsday2details/new26.png,stimsday2details/cn28.png,stimsday2details/n28.png,stimsday2details/t28.png,stimsday2details/ct28.png,0,1,1,1,0,0,0,0,,,,,,,,,,,,,,,,,,,,,,,,,None,None,,,,,,,,,,,,,,,,,,,,,,,,,,,,,,,,,,,,,,,,,,,,,,,,,,,,,,,,,,,,,,,,,,,,,,,,,,,,,,,,,,,,,,,,,,,,,001,28,2019_Nov_19_1000,viewing,3.1.2,59.63301322634205,
north.png,stims/wedding-28.1a.mp4,stims/wedding-28.1b.mp4,stims/wedding-28.2a.mp4,stims/wedding-28.3a.mp4,stims/wedding-28.4a.mp4,stims/wedding-28.5.mp4,stimsday2details/newegg13.png,stimsday2details/egg28.png,stimsday2details/couple28.png,stimsday2details/newperson26.png,stimsday2details/gift28.png,stimsday2details/new26.png,stimsday2details/cn28.png,stimsday2details/n28.png,stimsday2details/t28.png,stimsday2details/ct28.png,0,1,1,1,,,,,0,0,0,0,,,,,,,,,,,,,,,,,,,,,,,178.07235980173573,None,,,,,,,,,,,,,,,,,,,,,,,,,,,,,,,,,,,,,,,,,,,,,,,,,,,,,,,,,,,,,,,,,,,,,,,,,,,,,,,,,,,,,,,,,,,001,28,2019_Nov_19_1000,viewing,3.1.2,59.63301322634205,
north.png,stims/wedding-28.1a.mp4,stims/wedding-28.1b.mp4,stims/wedding-28.2a.mp4,stims/wedding-28.3a.mp4,stims/wedding-28.4a.mp4,stims/wedding-28.5.mp4,stimsday2details/newegg13.png,stimsday2details/egg28.png,stimsday2details/couple28.png,stimsday2details/newperson26.png,stimsday2details/gift28.png,stimsday2details/new26.png,stimsday2details/cn28.png,stimsday2details/n28.png,stimsday2details/t28.png,stimsday2details/ct28.png,0,1,1,1,,,,,,,,,0,0,0,0,,,,,,,,,,,,,,,,,,,,,2.913556172978133,None,188.03804480005056,213.1263225870207,213.138742050156,None,222.137961988803,239.12158871814609,239.13759243208915,262.12045595189556,262.1373058129102,286.120033597108,286.1370075568557,None,,,,,,,,,,,,,,,,,,,,,,,,,,,,,,,,,,,,,,,,,,,,,,,,,,,,,,,,,,,,,,,,,,,,,,,,,,,,,001,28,2019_Nov_19_1000,viewing,3.1.2,59.63301322634205,
north.png,stims/wedding-28.1a.mp4,stims/wedding-28.1b.mp4,stims/wedding-28.2a.mp4,stims/wedding-28.3a.mp4,stims/wedding-28.4a.mp4,stims/wedding-28.5.mp4,stimsday2details/newegg13.png,stimsday2details/egg28.png,stimsday2details/couple28.png,stimsday2details/newperson26.png,stimsday2details/gift28.png,stimsday2details/new26.png,stimsday2details/cn28.png,stimsday2details/n28.png,stimsday2details/t28.png,stimsday2details/ct28.png,0,1,1,1,,,,,,,,,,,,,0,0,0,0,,,,,,,,,,,,,,,,,,,,,,,,,,,,,,,None,None,None,None,None,None,None,None,None,None,None,None,None,None,None,None,None,None,None,,None,None,None,,None,None,,,,,,,,,,,,,,,,,,,,,,,,,,,,,,,,,,,,,,,,,,,,,,,,,,,001,28,2019_Nov_19_1000,viewing,3.1.2,59.63301322634205,
north.png,stims/wedding-28.1a.mp4,stims/wedding-28.1b.mp4,stims/wedding-28.2a.mp4,stims/wedding-28.3a.mp4,stims/wedding-28.4a.mp4,stims/wedding-28.5.mp4,stimsday2details/newegg13.png,stimsday2details/egg28.png,stimsday2details/couple28.png,stimsday2details/newperson26.png,stimsday2details/gift28.png,stimsday2details/new26.png,stimsday2details/cn28.png,stimsday2details/n28.png,stimsday2details/t28.png,stimsday2details/ct28.png,0,1,1,1,,,,,,,,,,,,,,,,,,,,,,,,,,,,,,,,,,,,,,,,,,,,,,,,,,,,,,,,,,,,,,,,,,,,,,,,,3.0837953090667725e-05,None,3,0.8397254142910242,310.1203129799105,None,310.1203129799105,None,310.1203129799105,None,312.1039189598523,None,3,0.8512909696437418,312.1039189598523,None,312.1039189598523,None,314.1043659048155,None,314.1043659048155,None,2,0.9889362216927111,314.1043659048155,None,2,1.0680082021281123,316.10392882907763,None,316.10392882907763,None,316.10392882907763,None,318.10429790988564,None,318.10429790988564,None,2,0.8382429089397192,318.10429790988564,None,320.1041967771016,None,320.1041967771016,None,2,0.8676953930407763,320.1041967771016,None,001,28,2019_Nov_19_1000,viewing,3.1.2,59.63301322634205,
north.png,stims/wedding-17.1a.mp4,stims/wedding-17.1b.mp4,stims/wedding-17.2b.mp4,stims/wedding-17.3b.mp4,stims/wedding-17.4b.mp4,stims/wedding-17.5.mp4,stimsday2details/newpainting14.png,stimsday2details/painting17.png,stimsday2details/couple17.png,stimsday2details/newperson27.png,stimsday2details/gift17.png,stimsday2details/new27.png,stimsday2details/n17.png,stimsday2details/cn17.png,stimsday2details/ct17.png,stimsday2details/t17.png,0,2,2,2,0,0,0,0,,,,,,,,,,,,,,,,,,,,,,,,,None,None,,,,,,,,,,,,,,,,,,,,,,,,,,,,,,,,,,,,,,,,,,,,,,,,,,,,,,,,,,,,,,,,,,,,,,,,,,,,,,,,,,,,,,,,,,,,,001,28,2019_Nov_19_1000,viewing,3.1.2,59.63301322634205,
north.png,stims/wedding-17.1a.mp4,stims/wedding-17.1b.mp4,stims/wedding-17.2b.mp4,stims/wedding-17.3b.mp4,stims/wedding-17.4b.mp4,stims/wedding-17.5.mp4,stimsday2details/newpainting14.png,stimsday2details/painting17.png,stimsday2details/couple17.png,stimsday2details/newperson27.png,stimsday2details/gift17.png,stimsday2details/new27.png,stimsday2details/n17.png,stimsday2details/cn17.png,stimsday2details/ct17.png,stimsday2details/t17.png,0,2,2,2,,,,,0,0,0,0,,,,,,,,,,,,,,,,,,,,,,,322.17107905307785,None,,,,,,,,,,,,,,,,,,,,,,,,,,,,,,,,,,,,,,,,,,,,,,,,,,,,,,,,,,,,,,,,,,,,,,,,,,,,,,,,,,,,,,,,,,,001,28,2019_Nov_19_1000,viewing,3.1.2,59.63301322634205,
north.png,stims/wedding-17.1a.mp4,stims/wedding-17.1b.mp4,stims/wedding-17.2b.mp4,stims/wedding-17.3b.mp4,stims/wedding-17.4b.mp4,stims/wedding-17.5.mp4,stimsday2details/newpainting14.png,stimsday2details/painting17.png,stimsday2details/couple17.png,stimsday2details/newperson27.png,stimsday2details/gift17.png,stimsday2details/new27.png,stimsday2details/n17.png,stimsday2details/cn17.png,stimsday2details/ct17.png,stimsday2details/t17.png,0,2,2,2,,,,,,,,,0,0,0,0,,,,,,,,,,,,,,,,,,,,,2.9768433910794556,None,332.22003425005823,None,357.2531570820138,None,366.25342163816094,None,383.25377811072394,406.25295897200704,406.25295897200704,None,430.2532449858263,None,,,,,,,,,,,,,,,,,,,,,,,,,,,,,,,,,,,,,,,,,,,,,,,,,,,,,,,,,,,,,,,,,,,,,,,,,,,,,001,28,2019_Nov_19_1000,viewing,3.1.2,59.63301322634205,
north.png,stims/wedding-17.1a.mp4,stims/wedding-17.1b.mp4,stims/wedding-17.2b.mp4,stims/wedding-17.3b.mp4,stims/wedding-17.4b.mp4,stims/wedding-17.5.mp4,stimsday2details/newpainting14.png,stimsday2details/painting17.png,stimsday2details/couple17.png,stimsday2details/newperson27.png,stimsday2details/gift17.png,stimsday2details/new27.png,stimsday2details/n17.png,stimsday2details/cn17.png,stimsday2details/ct17.png,stimsday2details/t17.png,0,2,2,2,,,,,,,,,,,,,0,0,0,0,,,,,,,,,,,,,,,,,,,,,,,,,,,,,,,None,None,None,None,None,None,None,None,None,None,None,None,None,None,None,None,None,None,None,,None,None,None,,None,None,,,,,,,,,,,,,,,,,,,,,,,,,,,,,,,,,,,,,,,,,,,,,,,,,,,001,28,2019_Nov_19_1000,viewing,3.1.2,59.63301322634205,
north.png,stims/wedding-17.1a.mp4,stims/wedding-17.1b.mp4,stims/wedding-17.2b.mp4,stims/wedding-17.3b.mp4,stims/wedding-17.4b.mp4,stims/wedding-17.5.mp4,stimsday2details/newpainting14.png,stimsday2details/painting17.png,stimsday2details/couple17.png,stimsday2details/newperson27.png,stimsday2details/gift17.png,stimsday2details/new27.png,stimsday2details/n17.png,stimsday2details/cn17.png,stimsday2details/ct17.png,stimsday2details/t17.png,0,2,2,2,,,,,,,,,,,,,,,,,,,,,,,,,,,,,,,,,,,,,,,,,,,,,,,,,,,,,,,,,,,,,,,,,,,,,,,,,3.7678051739931107e-05,None,2,1.0532148866914213,453.8680884721689,None,453.8680884721689,None,453.8680884721689,None,455.8563205478713,None,3,0.6980703710578382,455.8563205478713,None,455.8563205478713,None,457.8521439577453,None,457.8521439577453,None,2,0.6849817889742553,457.8521439577453,None,3,1.0175663148984313,459.85217171674594,None,459.85217171674594,None,459.85217171674594,None,461.85243007773533,None,461.85243007773533,None,2,0.8338845591060817,461.85243007773533,None,463.85239396011457,None,463.85239396011457,None,2,0.7874380256980658,463.85239396011457,None,001,28,2019_Nov_19_1000,viewing,3.1.2,59.63301322634205,
south.png,stims/wedding-6.1a.mp4,stims/wedding-6.1b.mp4,stims/wedding-6.2b.mp4,stims/wedding-6.3a.mp4,stims/wedding-6.4b.mp4,stims/wedding-6.5.mp4,stimsday2details/newpainting15.png,stimsday2details/painting6.png,stimsday2details/couple6.png,stimsday2details/newperson28.png,stimsday2details/gift6.png,stimsday2details/new28.png,stimsday2details/cn6.png,stimsday2details/n6.png,stimsday2details/t6.png,stimsday2details/ct6.png,0,3,3,3,0,0,0,0,,,,,,,,,,,,,,,,,,,,,,,,,465.85152491694316,None,,,,,,,,,,,,,,,,,,,,,,,,,,,,,,,,,,,,,,,,,,,,,,,,,,,,,,,,,,,,,,,,,,,,,,,,,,,,,,,,,,,,,,,,,,,,,001,28,2019_Nov_19_1000,viewing,3.1.2,59.63301322634205,
south.png,stims/wedding-6.1a.mp4,stims/wedding-6.1b.mp4,stims/wedding-6.2b.mp4,stims/wedding-6.3a.mp4,stims/wedding-6.4b.mp4,stims/wedding-6.5.mp4,stimsday2details/newpainting15.png,stimsday2details/painting6.png,stimsday2details/couple6.png,stimsday2details/newperson28.png,stimsday2details/gift6.png,stimsday2details/new28.png,stimsday2details/cn6.png,stimsday2details/n6.png,stimsday2details/t6.png,stimsday2details/ct6.png,0,3,3,3,,,,,0,0,0,0,,,,,,,,,,,,,,,,,,,,,,,None,None,,,,,,,,,,,,,,,,,,,,,,,,,,,,,,,,,,,,,,,,,,,,,,,,,,,,,,,,,,,,,,,,,,,,,,,,,,,,,,,,,,,,,,,,,,,001,28,2019_Nov_19_1000,viewing,3.1.2,59.63301322634205,
south.png,stims/wedding-6.1a.mp4,stims/wedding-6.1b.mp4,stims/wedding-6.2b.mp4,stims/wedding-6.3a.mp4,stims/wedding-6.4b.mp4,stims/wedding-6.5.mp4,stimsday2details/newpainting15.png,stimsday2details/painting6.png,stimsday2details/couple6.png,stimsday2details/newperson28.png,stimsday2details/gift6.png,stimsday2details/new28.png,stimsday2details/cn6.png,stimsday2details/n6.png,stimsday2details/t6.png,stimsday2details/ct6.png,0,3,3,3,,,,,,,,,0,0,0,0,,,,,,,,,,,,,,,,,,,,,2.836431344039738,None,475.867797201965,501.0385590749793,501.0511557031423,None,510.03901903377846,None,527.051702443976,550.0374871897511,550.0503287129104,None,574.050981443841,None,,,,,,,,,,,,,,,,,,,,,,,,,,,,,,,,,,,,,,,,,,,,,,,,,,,,,,,,,,,,,,,,,,,,,,,,,,,,,001,28,2019_Nov_19_1000,viewing,3.1.2,59.63301322634205,
south.png,stims/wedding-6.1a.mp4,stims/wedding-6.1b.mp4,stims/wedding-6.2b.mp4,stims/wedding-6.3a.mp4,stims/wedding-6.4b.mp4,stims/wedding-6.5.mp4,stimsday2details/newpainting15.png,stimsday2details/painting6.png,stimsday2details/couple6.png,stimsday2details/newperson28.png,stimsday2details/gift6.png,stimsday2details/new28.png,stimsday2details/cn6.png,stimsday2details/n6.png,stimsday2details/t6.png,stimsday2details/ct6.png,0,3,3,3,,,,,,,,,,,,,0,0,0,0,,,,,,,,,,,,,,,,,,,,,,,,,,,,,,,None,None,None,None,None,None,None,None,None,None,None,None,None,None,None,None,None,None,None,,None,None,None,,None,None,,,,,,,,,,,,,,,,,,,,,,,,,,,,,,,,,,,,,,,,,,,,,,,,,,,001,28,2019_Nov_19_1000,viewing,3.1.2,59.63301322634205,
south.png,stims/wedding-6.1a.mp4,stims/wedding-6.1b.mp4,stims/wedding-6.2b.mp4,stims/wedding-6.3a.mp4,stims/wedding-6.4b.mp4,stims/wedding-6.5.mp4,stimsday2details/newpainting15.png,stimsday2details/painting6.png,stimsday2details/couple6.png,stimsday2details/newperson28.png,stimsday2details/gift6.png,stimsday2details/new28.png,stimsday2details/cn6.png,stimsday2details/n6.png,stimsday2details/t6.png,stimsday2details/ct6.png,0,3,3,3,,,,,,,,,,,,,,,,,,,,,,,,,,,,,,,,,,,,,,,,,,,,,,,,,,,,,,,,,,,,,,,,,,,,,,,,,3.991182893514633e-05,None,3,1.0233759051188827,597.7663361779414,None,597.7663361779414,None,597.7663361779414,None,599.7544764089398,None,3,0.8352048741653562,599.7544764089398,None,599.7544764089398,None,601.7587577481754,None,601.7587577481754,None,2,0.9636413911357522,601.7587577481754,None,2,0.8308203457854688,603.7588694947772,None,603.7588694947772,None,603.7588694947772,None,605.7493276488967,None,605.7493276488967,None,2,1.0728608169592917,605.7493276488967,None,607.7504246290773,None,607.7504246290773,None,3,1.1688472665846348,607.7504246290773,None,001,28,2019_Nov_19_1000,viewing,3.1.2,59.63301322634205,
south.png,stims/wedding-2.1a.mp4,stims/wedding-2.1b.mp4,stims/wedding-2.2a.mp4,stims/wedding-2.3b.mp4,stims/wedding-2.4a.mp4,stims/wedding-2.5.mp4,stimsday2details/egg2.png,stimsday2details/newegg14.png,stimsday2details/couple2.png,stimsday2details/newperson29.png,stimsday2details/new29.png,stimsday2details/gift2.png,stimsday2details/cn2.png,stimsday2details/n2.png,stimsday2details/ct2.png,stimsday2details/t2.png,0,4,4,4,0,0,0,0,,,,,,,,,,,,,,,,,,,,,,,,,609.7495866818354,None,,,,,,,,,,,,,,,,,,,,,,,,,,,,,,,,,,,,,,,,,,,,,,,,,,,,,,,,,,,,,,,,,,,,,,,,,,,,,,,,,,,,,,,,,,,,,001,28,2019_Nov_19_1000,viewing,3.1.2,59.63301322634205,
south.png,stims/wedding-2.1a.mp4,stims/wedding-2.1b.mp4,stims/wedding-2.2a.mp4,stims/wedding-2.3b.mp4,stims/wedding-2.4a.mp4,stims/wedding-2.5.mp4,stimsday2details/egg2.png,stimsday2details/newegg14.png,stimsday2details/couple2.png,stimsday2details/newperson29.png,stimsday2details/new29.png,stimsday2details/gift2.png,stimsday2details/cn2.png,stimsday2details/n2.png,stimsday2details/ct2.png,stimsday2details/t2.png,0,4,4,4,,,,,0,0,0,0,,,,,,,,,,,,,,,,,,,,,,,None,None,,,,,,,,,,,,,,,,,,,,,,,,,,,,,,,,,,,,,,,,,,,,,,,,,,,,,,,,,,,,,,,,,,,,,,,,,,,,,,,,,,,,,,,,,,,001,28,2019_Nov_19_1000,viewing,3.1.2,59.63301322634205,
south.png,stims/wedding-2.1a.mp4,stims/wedding-2.1b.mp4,stims/wedding-2.2a.mp4,stims/wedding-2.3b.mp4,stims/wedding-2.4a.mp4,stims/wedding-2.5.mp4,stimsday2details/egg2.png,stimsday2details/newegg14.png,stimsday2details/couple2.png,stimsday2details/newperson29.png,stimsday2details/new29.png,stimsday2details/gift2.png,stimsday2details/cn2.png,stimsday2details/n2.png,stimsday2details/ct2.png,stimsday2details/t2.png,0,4,4,4,,,,,,,,,0,0,0,0,,,,,,,,,,,,,,,,,,,,,2.8184318030253053,None,619.8002868280746,None,644.9867057581432,None,654.0018178811297,None,670.9848043578677,693.9827434709296,693.9988094009459,None,717.9989906628616,None,,,,,,,,,,,,,,,,,,,,,,,,,,,,,,,,,,,,,,,,,,,,,,,,,,,,,,,,,,,,,,,,,,,,,,,,,,,,,001,28,2019_Nov_19_1000,viewing,3.1.2,59.63301322634205,
south.png,stims/wedding-2.1a.mp4,stims/wedding-2.1b.mp4,stims/wedding-2.2a.mp4,stims/wedding-2.3b.mp4,stims/wedding-2.4a.mp4,stims/wedding-2.5.mp4,stimsday2details/egg2.png,stimsday2details/newegg14.png,stimsday2details/couple2.png,stimsday2details/newperson29.png,stimsday2details/new29.png,stimsday2details/gift2.png,stimsday2details/cn2.png,stimsday2details/n2.png,stimsday2details/ct2.png,stimsday2details/t2.png,0,4,4,4,,,,,,,,,,,,,0,0,0,0,,,,,,,,,,,,,,,,,,,,,,,,,,,,,,,None,None,None,None,None,None,None,None,None,None,None,None,None,None,None,None,None,None,None,,None,None,None,,None,None,,,,,,,,,,,,,,,,,,,,,,,,,,,,,,,,,,,,,,,,,,,,,,,,,,,001,28,2019_Nov_19_1000,viewing,3.1.2,59.63301322634205,
south.png,stims/wedding-2.1a.mp4,stims/wedding-2.1b.mp4,stims/wedding-2.2a.mp4,stims/wedding-2.3b.mp4,stims/wedding-2.4a.mp4,stims/wedding-2.5.mp4,stimsday2details/egg2.png,stimsday2details/newegg14.png,stimsday2details/couple2.png,stimsday2details/newperson29.png,stimsday2details/new29.png,stimsday2details/gift2.png,stimsday2details/cn2.png,stimsday2details/n2.png,stimsday2details/ct2.png,stimsday2details/t2.png,0,4,4,4,,,,,,,,,,,,,,,,,,,,,,,,,,,,,,,,,,,,,,,,,,,,,,,,,,,,,,,,,,,,,,,,,,,,,,,,,3.672204911708832e-05,None,3,1.1361384359188378,741.7311564390548,None,741.7311564390548,None,741.7311564390548,None,743.7307947878726,None,2,0.7524872999638319,743.7307947878726,None,743.7307947878726,None,745.7200680729002,None,745.7200680729002,None,2,0.968072216026485,745.7200680729002,None,3,1.0515170297585428,747.7200433798134,None,747.7200433798134,None,747.7200433798134,None,749.7238958110102,None,749.7238958110102,None,3,0.910002248827368,749.7238958110102,None,751.7189832190052,None,751.7189832190052,None,3,0.6849521389231086,751.7189832190052,None,001,28,2019_Nov_19_1000,viewing,3.1.2,59.63301322634205,
north.png,stims/wedding-19.1a.mp4,stims/wedding-19.1b.mp4,stims/wedding-19.2a.mp4,stims/wedding-19.3a.mp4,stims/wedding-19.4a.mp4,stims/wedding-19.5.mp4,stimsday2details/egg19.png,stimsday2details/newegg15.png,stimsday2details/couple19.png,stimsday2details/newperson30.png,stimsday2details/new30.png,stimsday2details/gift19.png,stimsday2details/cn19.png,stimsday2details/n19.png,stimsday2details/ct19.png,stimsday2details/t19.png,0,5,5,5,0,0,0,0,,,,,,,,,,,,,,,,,,,,,,,,,None,None,,,,,,,,,,,,,,,,,,,,,,,,,,,,,,,,,,,,,,,,,,,,,,,,,,,,,,,,,,,,,,,,,,,,,,,,,,,,,,,,,,,,,,,,,,,,,001,28,2019_Nov_19_1000,viewing,3.1.2,59.63301322634205,
north.png,stims/wedding-19.1a.mp4,stims/wedding-19.1b.mp4,stims/wedding-19.2a.mp4,stims/wedding-19.3a.mp4,stims/wedding-19.4a.mp4,stims/wedding-19.5.mp4,stimsday2details/egg19.png,stimsday2details/newegg15.png,stimsday2details/couple19.png,stimsday2details/newperson30.png,stimsday2details/new30.png,stimsday2details/gift19.png,stimsday2details/cn19.png,stimsday2details/n19.png,stimsday2details/ct19.png,stimsday2details/t19.png,0,5,5,5,,,,,0,0,0,0,,,,,,,,,,,,,,,,,,,,,,,753.8489910378121,None,,,,,,,,,,,,,,,,,,,,,,,,,,,,,,,,,,,,,,,,,,,,,,,,,,,,,,,,,,,,,,,,,,,,,,,,,,,,,,,,,,,,,,,,,,,001,28,2019_Nov_19_1000,viewing,3.1.2,59.63301322634205,
north.png,stims/wedding-19.1a.mp4,stims/wedding-19.1b.mp4,stims/wedding-19.2a.mp4,stims/wedding-19.3a.mp4,stims/wedding-19.4a.mp4,stims/wedding-19.5.mp4,stimsday2details/egg19.png,stimsday2details/newegg15.png,stimsday2details/couple19.png,stimsday2details/newperson30.png,stimsday2details/new30.png,stimsday2details/gift19.png,stimsday2details/cn19.png,stimsday2details/n19.png,stimsday2details/ct19.png,stimsday2details/t19.png,0,5,5,5,,,,,,,,,0,0,0,0,,,,,,,,,,,,,,,,,,,,,2.950915079098195,None,763.9480304410681,788.9815380331129,788.998270991724,None,797.9980651559308,814.9967500329949,814.9967500329949,837.9806656991132,837.9970637429506,None,861.9961803071201,None,,,,,,,,,,,,,,,,,,,,,,,,,,,,,,,,,,,,,,,,,,,,,,,,,,,,,,,,,,,,,,,,,,,,,,,,,,,,,001,28,2019_Nov_19_1000,viewing,3.1.2,59.63301322634205,
north.png,stims/wedding-19.1a.mp4,stims/wedding-19.1b.mp4,stims/wedding-19.2a.mp4,stims/wedding-19.3a.mp4,stims/wedding-19.4a.mp4,stims/wedding-19.5.mp4,stimsday2details/egg19.png,stimsday2details/newegg15.png,stimsday2details/couple19.png,stimsday2details/newperson30.png,stimsday2details/new30.png,stimsday2details/gift19.png,stimsday2details/cn19.png,stimsday2details/n19.png,stimsday2details/ct19.png,stimsday2details/t19.png,0,5,5,5,,,,,,,,,,,,,0,0,0,0,,,,,,,,,,,,,,,,,,,,,,,,,,,,,,,None,None,None,None,None,None,None,None,None,None,None,None,None,None,None,None,None,None,None,,None,None,None,,None,None,,,,,,,,,,,,,,,,,,,,,,,,,,,,,,,,,,,,,,,,,,,,,,,,,,,001,28,2019_Nov_19_1000,viewing,3.1.2,59.63301322634205,
north.png,stims/wedding-19.1a.mp4,stims/wedding-19.1b.mp4,stims/wedding-19.2a.mp4,stims/wedding-19.3a.mp4,stims/wedding-19.4a.mp4,stims/wedding-19.5.mp4,stimsday2details/egg19.png,stimsday2details/newegg15.png,stimsday2details/couple19.png,stimsday2details/newperson30.png,stimsday2details/new30.png,stimsday2details/gift19.png,stimsday2details/cn19.png,stimsday2details/n19.png,stimsday2details/ct19.png,stimsday2details/t19.png,0,5,5,5,,,,,,,,,,,,,,,,,,,,,,,,,,,,,,,,,,,,,,,,,,,,,,,,,,,,,,,,,,,,,,,,,,,,,,,,,3.707408905029297e-05,None,3,0.9730351706966758,886.2631460307166,None,886.2631460307166,None,886.2631460307166,None,888.2464830270037,None,2,0.8352706548757851,888.2464830270037,None,888.2464830270037,None,890.2505472199991,None,890.2505472199991,None,2,1.018620110116899,890.2505472199991,None,3,1.1860339087434113,892.2461195578799,None,892.2461195578799,None,892.2461195578799,None,894.2461084951647,None,894.2461084951647,None,3,1.023592165671289,894.2461084951647,None,896.2464767550118,None,896.2464767550118,None,2,1.689089845865965,896.2464767550118,None,001,28,2019_Nov_19_1000,viewing,3.1.2,59.63301322634205,
north.png,stims/wedding-1.1a.mp4,stims/wedding-1.1b.mp4,stims/wedding-1.2a.mp4,stims/wedding-1.3a.mp4,stims/wedding-1.4a.mp4,stims/wedding-1.5.mp4,stimsday2details/egg1.png,stimsday2details/newegg16.png,stimsday2details/newperson31.png,stimsday2details/couple1.png,stimsday2details/gift1.png,stimsday2details/new31.png,stimsday2details/n1.png,stimsday2details/cn1.png,stimsday2details/ct1.png,stimsday2details/t1.png,0,6,6,6,0,0,0,0,,,,,,,,,,,,,,,,,,,,,,,,,None,None,,,,,,,,,,,,,,,,,,,,,,,,,,,,,,,,,,,,,,,,,,,,,,,,,,,,,,,,,,,,,,,,,,,,,,,,,,,,,,,,,,,,,,,,,,,,,001,28,2019_Nov_19_1000,viewing,3.1.2,59.63301322634205,
north.png,stims/wedding-1.1a.mp4,stims/wedding-1.1b.mp4,stims/wedding-1.2a.mp4,stims/wedding-1.3a.mp4,stims/wedding-1.4a.mp4,stims/wedding-1.5.mp4,stimsday2details/egg1.png,stimsday2details/newegg16.png,stimsday2details/newperson31.png,stimsday2details/couple1.png,stimsday2details/gift1.png,stimsday2details/new31.png,stimsday2details/n1.png,stimsday2details/cn1.png,stimsday2details/ct1.png,stimsday2details/t1.png,0,6,6,6,,,,,0,0,0,0,,,,,,,,,,,,,,,,,,,,,,,898.4012263319455,None,,,,,,,,,,,,,,,,,,,,,,,,,,,,,,,,,,,,,,,,,,,,,,,,,,,,,,,,,,,,,,,,,,,,,,,,,,,,,,,,,,,,,,,,,,,001,28,2019_Nov_19_1000,viewing,3.1.2,59.63301322634205,
north.png,stims/wedding-1.1a.mp4,stims/wedding-1.1b.mp4,stims/wedding-1.2a.mp4,stims/wedding-1.3a.mp4,stims/wedding-1.4a.mp4,stims/wedding-1.5.mp4,stimsday2details/egg1.png,stimsday2details/newegg16.png,stimsday2details/newperson31.png,stimsday2details/couple1.png,stimsday2details/gift1.png,stimsday2details/new31.png,stimsday2details/n1.png,stimsday2details/cn1.png,stimsday2details/ct1.png,stimsday2details/t1.png,0,6,6,6,,,,,,,,,0,0,0,0,,,,,,,,,,,,,,,,,,,,,2.9940404631197453,None,908.5630140607245,933.5669039897621,933.5795101849362,None,942.5797262671404,959.5621106019244,959.5786216119304,982.5626254179515,982.5791371269152,None,1006.5620169658214,None,,,,,,,,,,,,,,,,,,,,,,,,,,,,,,,,,,,,,,,,,,,,,,,,,,,,,,,,,,,,,,,,,,,,,,,,,,,,,001,28,2019_Nov_19_1000,viewing,3.1.2,59.63301322634205,
north.png,stims/wedding-1.1a.mp4,stims/wedding-1.1b.mp4,stims/wedding-1.2a.mp4,stims/wedding-1.3a.mp4,stims/wedding-1.4a.mp4,stims/wedding-1.5.mp4,stimsday2details/egg1.png,stimsday2details/newegg16.png,stimsday2details/newperson31.png,stimsday2details/couple1.png,stimsday2details/gift1.png,stimsday2details/new31.png,stimsday2details/n1.png,stimsday2details/cn1.png,stimsday2details/ct1.png,stimsday2details/t1.png,0,6,6,6,,,,,,,,,,,,,0,0,0,0,,,,,,,,,,,,,,,,,,,,,,,,,,,,,,,None,None,None,None,None,None,None,None,None,None,None,None,None,None,None,None,None,None,None,,None,None,None,,None,None,,,,,,,,,,,,,,,,,,,,,,,,,,,,,,,,,,,,,,,,,,,,,,,,,,,001,28,2019_Nov_19_1000,viewing,3.1.2,59.63301322634205,
north.png,stims/wedding-1.1a.mp4,stims/wedding-1.1b.mp4,stims/wedding-1.2a.mp4,stims/wedding-1.3a.mp4,stims/wedding-1.4a.mp4,stims/wedding-1.5.mp4,stimsday2details/egg1.png,stimsday2details/newegg16.png,stimsday2details/newperson31.png,stimsday2details/couple1.png,stimsday2details/gift1.png,stimsday2details/new31.png,stimsday2details/n1.png,stimsday2details/cn1.png,stimsday2details/ct1.png,stimsday2details/t1.png,0,6,6,6,,,,,,,,,,,,,,,,,,,,,,,,,,,,,,,,,,,,,,,,,,,,,,,,,,,,,,,,,,,,,,,,,,,,,,,,,3.1218864023685455e-05,None,2,0.6609226209111512,1030.44441727316,None,1030.44441727316,None,1030.44441727316,None,1032.4532196847722,None,2,0.6639038538560271,1032.4532196847722,None,1032.4532196847722,None,1034.4532629079185,None,1034.4532629079185,None,3,0.7813726589083672,1034.4532629079185,None,3,0.9684833339415491,1036.4439170989208,None,1036.4439170989208,None,1036.4439170989208,None,1038.447767465841,None,1038.447767465841,None,2,0.8983001047745347,1038.447767465841,None,1040.4488795110956,None,1040.4488795110956,None,2,1.478597245644778,1040.4488795110956,None,001,28,2019_Nov_19_1000,viewing,3.1.2,59.63301322634205,
south.png,stims/wedding-34.1a.mp4,stims/wedding-34.1b.mp4,stims/wedding-34.2a.mp4,stims/wedding-34.3b.mp4,stims/wedding-34.4a.mp4,stims/wedding-34.5.mp4,stimsday2details/egg34.png,stimsday2details/newegg17.png,stimsday2details/couple34.png,stimsday2details/newperson32.png,stimsday2details/gift34.png,stimsday2details/new32.png,stimsday2details/cn34.png,stimsday2details/n34.png,stimsday2details/t34.png,stimsday2details/ct34.png,0,7,7,7,0,0,0,0,,,,,,,,,,,,,,,,,,,,,,,,,1042.4479779037647,None,,,,,,,,,,,,,,,,,,,,,,,,,,,,,,,,,,,,,,,,,,,,,,,,,,,,,,,,,,,,,,,,,,,,,,,,,,,,,,,,,,,,,,,,,,,,,001,28,2019_Nov_19_1000,viewing,3.1.2,59.63301322634205,
south.png,stims/wedding-34.1a.mp4,stims/wedding-34.1b.mp4,stims/wedding-34.2a.mp4,stims/wedding-34.3b.mp4,stims/wedding-34.4a.mp4,stims/wedding-34.5.mp4,stimsday2details/egg34.png,stimsday2details/newegg17.png,stimsday2details/couple34.png,stimsday2details/newperson32.png,stimsday2details/gift34.png,stimsday2details/new32.png,stimsday2details/cn34.png,stimsday2details/n34.png,stimsday2details/t34.png,stimsday2details/ct34.png,0,7,7,7,,,,,0,0,0,0,,,,,,,,,,,,,,,,,,,,,,,None,None,,,,,,,,,,,,,,,,,,,,,,,,,,,,,,,,,,,,,,,,,,,,,,,,,,,,,,,,,,,,,,,,,,,,,,,,,,,,,,,,,,,,,,,,,,,001,28,2019_Nov_19_1000,viewing,3.1.2,59.63301322634205,
south.png,stims/wedding-34.1a.mp4,stims/wedding-34.1b.mp4,stims/wedding-34.2a.mp4,stims/wedding-34.3b.mp4,stims/wedding-34.4a.mp4,stims/wedding-34.5.mp4,stimsday2details/egg34.png,stimsday2details/newegg17.png,stimsday2details/couple34.png,stimsday2details/newperson32.png,stimsday2details/gift34.png,stimsday2details/new32.png,stimsday2details/cn34.png,stimsday2details/n34.png,stimsday2details/t34.png,stimsday2details/ct34.png,0,7,7,7,,,,,,,,,0,0,0,0,,,,,,,,,,,,,,,,,,,,,3.0497184968553483,None,1052.8438455681317,1077.7960899118334,1077.8124941238202,1086.797461388167,1086.8102136170492,None,1103.810968554113,1126.797901737038,1126.8106439090334,1150.7943711928092,1150.811108681839,None,,,,,,,,,,,,,,,,,,,,,,,,,,,,,,,,,,,,,,,,,,,,,,,,,,,,,,,,,,,,,,,,,,,,,,,,,,,,,001,28,2019_Nov_19_1000,viewing,3.1.2,59.63301322634205,
south.png,stims/wedding-34.1a.mp4,stims/wedding-34.1b.mp4,stims/wedding-34.2a.mp4,stims/wedding-34.3b.mp4,stims/wedding-34.4a.mp4,stims/wedding-34.5.mp4,stimsday2details/egg34.png,stimsday2details/newegg17.png,stimsday2details/couple34.png,stimsday2details/newperson32.png,stimsday2details/gift34.png,stimsday2details/new32.png,stimsday2details/cn34.png,stimsday2details/n34.png,stimsday2details/t34.png,stimsday2details/ct34.png,0,7,7,7,,,,,,,,,,,,,0,0,0,0,,,,,,,,,,,,,,,,,,,,,,,,,,,,,,,None,None,None,None,None,None,None,None,None,None,None,None,None,None,None,None,None,None,None,,None,None,None,,None,None,,,,,,,,,,,,,,,,,,,,,,,,,,,,,,,,,,,,,,,,,,,,,,,,,,,001,28,2019_Nov_19_1000,viewing,3.1.2,59.63301322634205,
south.png,stims/wedding-34.1a.mp4,stims/wedding-34.1b.mp4,stims/wedding-34.2a.mp4,stims/wedding-34.3b.mp4,stims/wedding-34.4a.mp4,stims/wedding-34.5.mp4,stimsday2details/egg34.png,stimsday2details/newegg17.png,stimsday2details/couple34.png,stimsday2details/newperson32.png,stimsday2details/gift34.png,stimsday2details/new32.png,stimsday2details/cn34.png,stimsday2details/n34.png,stimsday2details/t34.png,stimsday2details/ct34.png,0,7,7,7,,,,,,,,,,,,,,,,,,,,,,,,,,,,,,,,,,,,,,,,,,,,,,,,,,,,,,,,,,,,,,,,,,,,,,,,,5.226209759712219e-05,None,3,1.2181078428402543,1174.493541399017,None,1174.493541399017,None,1174.493541399017,None,1176.4921808601357,None,2,1.0404181978665292,1176.4921808601357,None,1176.4921808601357,None,1178.4923478681594,None,1178.4923478681594,None,2,0.7681665727868676,1178.4923478681594,None,2,0.9839473916217685,1180.4935427480377,None,1180.4935427480377,None,1180.4935427480377,None,1182.4964914550073,None,1182.4964914550073,None,2,0.7016188851557672,1182.4964914550073,None,1184.4922300577164,None,1184.4922300577164,None,3,1.4527284638024867,1184.4922300577164,None,001,28,2019_Nov_19_1000,viewing,3.1.2,59.63301322634205,
south.png,stims/wedding-38.1a.mp4,stims/wedding-38.1b.mp4,stims/wedding-38.2b.mp4,stims/wedding-38.3a.mp4,stims/wedding-38.4b.mp4,stims/wedding-38.5.mp4,stimsday2details/painting38.png,stimsday2details/newpainting16.png,stimsday2details/couple38.png,stimsday2details/newperson33.png,stimsday2details/gift38.png,stimsday2details/new33.png,stimsday2details/n38.png,stimsday2details/cn38.png,stimsday2details/t38.png,stimsday2details/ct38.png,0,8,8,8,0,0,0,0,,,,,,,,,,,,,,,,,,,,,,,,,1186.4922066321597,None,,,,,,,,,,,,,,,,,,,,,,,,,,,,,,,,,,,,,,,,,,,,,,,,,,,,,,,,,,,,,,,,,,,,,,,,,,,,,,,,,,,,,,,,,,,,,001,28,2019_Nov_19_1000,viewing,3.1.2,59.63301322634205,
south.png,stims/wedding-38.1a.mp4,stims/wedding-38.1b.mp4,stims/wedding-38.2b.mp4,stims/wedding-38.3a.mp4,stims/wedding-38.4b.mp4,stims/wedding-38.5.mp4,stimsday2details/painting38.png,stimsday2details/newpainting16.png,stimsday2details/couple38.png,stimsday2details/newperson33.png,stimsday2details/gift38.png,stimsday2details/new33.png,stimsday2details/n38.png,stimsday2details/cn38.png,stimsday2details/t38.png,stimsday2details/ct38.png,0,8,8,8,,,,,0,0,0,0,,,,,,,,,,,,,,,,,,,,,,,None,None,,,,,,,,,,,,,,,,,,,,,,,,,,,,,,,,,,,,,,,,,,,,,,,,,,,,,,,,,,,,,,,,,,,,,,,,,,,,,,,,,,,,,,,,,,,001,28,2019_Nov_19_1000,viewing,3.1.2,59.63301322634205,
south.png,stims/wedding-38.1a.mp4,stims/wedding-38.1b.mp4,stims/wedding-38.2b.mp4,stims/wedding-38.3a.mp4,stims/wedding-38.4b.mp4,stims/wedding-38.5.mp4,stimsday2details/painting38.png,stimsday2details/newpainting16.png,stimsday2details/couple38.png,stimsday2details/newperson33.png,stimsday2details/gift38.png,stimsday2details/new33.png,stimsday2details/n38.png,stimsday2details/cn38.png,stimsday2details/t38.png,stimsday2details/ct38.png,0,8,8,8,,,,,,,,,0,0,0,0,,,,,,,,,,,,,,,,,,,,,2.8953139390796423,None,1196.7923405389301,1221.8962575988844,1221.913168096915,None,1230.9131276328117,None,1247.9107158249244,1270.896640343126,1270.9090194697492,None,1294.9076010277495,None,,,,,,,,,,,,,,,,,,,,,,,,,,,,,,,,,,,,,,,,,,,,,,,,,,,,,,,,,,,,,,,,,,,,,,,,,,,,,001,28,2019_Nov_19_1000,viewing,3.1.2,59.63301322634205,
south.png,stims/wedding-38.1a.mp4,stims/wedding-38.1b.mp4,stims/wedding-38.2b.mp4,stims/wedding-38.3a.mp4,stims/wedding-38.4b.mp4,stims/wedding-38.5.mp4,stimsday2details/painting38.png,stimsday2details/newpainting16.png,stimsday2details/couple38.png,stimsday2details/newperson33.png,stimsday2details/gift38.png,stimsday2details/new33.png,stimsday2details/n38.png,stimsday2details/cn38.png,stimsday2details/t38.png,stimsday2details/ct38.png,0,8,8,8,,,,,,,,,,,,,0,0,0,0,,,,,,,,,,,,,,,,,,,,,,,,,,,,,,,None,None,None,None,None,None,None,None,None,None,None,None,None,None,None,None,None,None,None,,None,None,None,,None,None,,,,,,,,,,,,,,,,,,,,,,,,,,,,,,,,,,,,,,,,,,,,,,,,,,,001,28,2019_Nov_19_1000,viewing,3.1.2,59.63301322634205,
south.png,stims/wedding-38.1a.mp4,stims/wedding-38.1b.mp4,stims/wedding-38.2b.mp4,stims/wedding-38.3a.mp4,stims/wedding-38.4b.mp4,stims/wedding-38.5.mp4,stimsday2details/painting38.png,stimsday2details/newpainting16.png,stimsday2details/couple38.png,stimsday2details/newperson33.png,stimsday2details/gift38.png,stimsday2details/new33.png,stimsday2details/n38.png,stimsday2details/cn38.png,stimsday2details/t38.png,stimsday2details/ct38.png,0,8,8,8,,,,,,,,,,,,,,,,,,,,,,,,,,,,,,,,,,,,,,,,,,,,,,,,,,,,,,,,,,,,,,,,,,,,,,,,,3.0160881578922272e-05,None,2,0.9001088659279048,1319.1764201507904,None,1319.1764201507904,None,1319.1764201507904,None,1321.175110544078,None,2,0.8009672467596829,1321.175110544078,None,1321.175110544078,None,1323.1787011288106,None,1323.1787011288106,None,2,0.8683214471675456,1323.1787011288106,None,2,0.6671740501187742,1325.1747927800752,None,1325.1747927800752,None,1325.1747927800752,None,1327.1781751257367,None,1327.1781751257367,None,2,0.6023010811768472,1327.1781751257367,None,1329.1782884867862,None,1329.1782884867862,None,None,,1329.1782884867862,None,001,28,2019_Nov_19_1000,viewing,3.1.2,59.63301322634205,
north.png,stims/wedding-20.1a.mp4,stims/wedding-20.1b.mp4,stims/wedding-20.2b.mp4,stims/wedding-20.3b.mp4,stims/wedding-20.4b.mp4,stims/wedding-20.5.mp4,stimsday2details/newpainting17.png,stimsday2details/painting20.png,stimsday2details/couple20.png,stimsday2details/newperson34.png,stimsday2details/gift20.png,stimsday2details/new34.png,stimsday2details/cn20.png,stimsday2details/n20.png,stimsday2details/ct20.png,stimsday2details/t20.png,0,9,9,9,0,0,0,0,,,,,,,,,,,,,,,,,,,,,,,,,None,None,,,,,,,,,,,,,,,,,,,,,,,,,,,,,,,,,,,,,,,,,,,,,,,,,,,,,,,,,,,,,,,,,,,,,,,,,,,,,,,,,,,,,,,,,,,,,001,28,2019_Nov_19_1000,viewing,3.1.2,59.63301322634205,
north.png,stims/wedding-20.1a.mp4,stims/wedding-20.1b.mp4,stims/wedding-20.2b.mp4,stims/wedding-20.3b.mp4,stims/wedding-20.4b.mp4,stims/wedding-20.5.mp4,stimsday2details/newpainting17.png,stimsday2details/painting20.png,stimsday2details/couple20.png,stimsday2details/newperson34.png,stimsday2details/gift20.png,stimsday2details/new34.png,stimsday2details/cn20.png,stimsday2details/n20.png,stimsday2details/ct20.png,stimsday2details/t20.png,0,9,9,9,,,,,0,0,0,0,,,,,,,,,,,,,,,,,,,,,,,1331.3915622029454,None,,,,,,,,,,,,,,,,,,,,,,,,,,,,,,,,,,,,,,,,,,,,,,,,,,,,,,,,,,,,,,,,,,,,,,,,,,,,,,,,,,,,,,,,,,,001,28,2019_Nov_19_1000,viewing,3.1.2,59.63301322634205,
north.png,stims/wedding-20.1a.mp4,stims/wedding-20.1b.mp4,stims/wedding-20.2b.mp4,stims/wedding-20.3b.mp4,stims/wedding-20.4b.mp4,stims/wedding-20.5.mp4,stimsday2details/newpainting17.png,stimsday2details/painting20.png,stimsday2details/couple20.png,stimsday2details/newperson34.png,stimsday2details/gift20.png,stimsday2details/new34.png,stimsday2details/cn20.png,stimsday2details/n20.png,stimsday2details/ct20.png,stimsday2details/t20.png,0,9,9,9,,,,,,,,,0,0,0,0,,,,,,,,,,,,,,,,,,,,,2.8332526949234307,None,1341.4575759330764,1366.607647607103,1366.6244797320105,None,1375.6239266991615,None,1392.6231324747205,1415.6232202607207,1415.6232202607207,None,1439.6224212320521,None,,,,,,,,,,,,,,,,,,,,,,,,,,,,,,,,,,,,,,,,,,,,,,,,,,,,,,,,,,,,,,,,,,,,,,,,,,,,,001,28,2019_Nov_19_1000,viewing,3.1.2,59.63301322634205,
north.png,stims/wedding-20.1a.mp4,stims/wedding-20.1b.mp4,stims/wedding-20.2b.mp4,stims/wedding-20.3b.mp4,stims/wedding-20.4b.mp4,stims/wedding-20.5.mp4,stimsday2details/newpainting17.png,stimsday2details/painting20.png,stimsday2details/couple20.png,stimsday2details/newperson34.png,stimsday2details/gift20.png,stimsday2details/new34.png,stimsday2details/cn20.png,stimsday2details/n20.png,stimsday2details/ct20.png,stimsday2details/t20.png,0,9,9,9,,,,,,,,,,,,,0,0,0,0,,,,,,,,,,,,,,,,,,,,,,,,,,,,,,,None,None,None,None,None,None,None,None,None,None,None,None,None,None,None,None,None,None,None,,None,None,None,,None,None,,,,,,,,,,,,,,,,,,,,,,,,,,,,,,,,,,,,,,,,,,,,,,,,,,,001,28,2019_Nov_19_1000,viewing,3.1.2,59.63301322634205,
north.png,stims/wedding-20.1a.mp4,stims/wedding-20.1b.mp4,stims/wedding-20.2b.mp4,stims/wedding-20.3b.mp4,stims/wedding-20.4b.mp4,stims/wedding-20.5.mp4,stimsday2details/newpainting17.png,stimsday2details/painting20.png,stimsday2details/couple20.png,stimsday2details/newperson34.png,stimsday2details/gift20.png,stimsday2details/new34.png,stimsday2details/cn20.png,stimsday2details/n20.png,stimsday2details/ct20.png,stimsday2details/t20.png,0,9,9,9,,,,,,,,,,,,,,,,,,,,,,,,,,,,,,,,,,,,,,,,,,,,,,,,,,,,,,,,,,,,,,,,,,,,,,,,,4.352489486336708e-05,None,3,1.0887886718846858,1462.5236271829344,None,1462.5236271829344,None,1462.5236271829344,None,1464.5228565307334,None,3,0.9180077258497477,1464.5228565307334,None,1464.5228565307334,None,1466.5231078569777,None,1466.5231078569777,None,2,0.7020276160910726,1466.5231078569777,None,3,1.0398268969729543,1468.526444383897,None,1468.526444383897,None,1468.526444383897,None,1470.5310655869544,None,1470.5310655869544,None,2,0.7006611162796617,1470.5310655869544,None,1472.526185595896,None,1472.526185595896,None,2,1.5183832622133195,1472.526185595896,None,001,28,2019_Nov_19_1000,viewing,3.1.2,59.63301322634205,
north.png,stims/wedding-23.1a.mp4,stims/wedding-23.1b.mp4,stims/wedding-23.2b.mp4,stims/wedding-23.3b.mp4,stims/wedding-23.4b.mp4,stims/wedding-23.5.mp4,stimsday2details/newpainting18.png,stimsday2details/painting23.png,stimsday2details/newperson35.png,stimsday2details/couple23.png,stimsday2details/gift23.png,stimsday2details/new35.png,stimsday2details/n23.png,stimsday2details/cn23.png,stimsday2details/t23.png,stimsday2details/ct23.png,0,10,10,10,0,0,0,0,,,,,,,,,,,,,,,,,,,,,,,,,None,None,,,,,,,,,,,,,,,,,,,,,,,,,,,,,,,,,,,,,,,,,,,,,,,,,,,,,,,,,,,,,,,,,,,,,,,,,,,,,,,,,,,,,,,,,,,,,001,28,2019_Nov_19_1000,viewing,3.1.2,59.63301322634205,
north.png,stims/wedding-23.1a.mp4,stims/wedding-23.1b.mp4,stims/wedding-23.2b.mp4,stims/wedding-23.3b.mp4,stims/wedding-23.4b.mp4,stims/wedding-23.5.mp4,stimsday2details/newpainting18.png,stimsday2details/painting23.png,stimsday2details/newperson35.png,stimsday2details/couple23.png,stimsday2details/gift23.png,stimsday2details/new35.png,stimsday2details/n23.png,stimsday2details/cn23.png,stimsday2details/t23.png,stimsday2details/ct23.png,0,10,10,10,,,,,0,0,0,0,,,,,,,,,,,,,,,,,,,,,,,1474.7730676527135,None,,,,,,,,,,,,,,,,,,,,,,,,,,,,,,,,,,,,,,,,,,,,,,,,,,,,,,,,,,,,,,,,,,,,,,,,,,,,,,,,,,,,,,,,,,,001,28,2019_Nov_19_1000,viewing,3.1.2,59.63301322634205,
north.png,stims/wedding-23.1a.mp4,stims/wedding-23.1b.mp4,stims/wedding-23.2b.mp4,stims/wedding-23.3b.mp4,stims/wedding-23.4b.mp4,stims/wedding-23.5.mp4,stimsday2details/newpainting18.png,stimsday2details/painting23.png,stimsday2details/newperson35.png,stimsday2details/couple23.png,stimsday2details/gift23.png,stimsday2details/new35.png,stimsday2details/n23.png,stimsday2details/cn23.png,stimsday2details/t23.png,stimsday2details/ct23.png,0,10,10,10,,,,,,,,,0,0,0,0,,,,,,,,,,,,,,,,,,,,,2.9537230292335153,None,1484.9725669510663,1510.026683458127,1510.0388134368695,None,1519.0380922607146,None,1536.0389923611656,1559.0206118328497,1559.038659451995,None,1583.0372841367498,None,,,,,,,,,,,,,,,,,,,,,,,,,,,,,,,,,,,,,,,,,,,,,,,,,,,,,,,,,,,,,,,,,,,,,,,,,,,,,001,28,2019_Nov_19_1000,viewing,3.1.2,59.63301322634205,
north.png,stims/wedding-23.1a.mp4,stims/wedding-23.1b.mp4,stims/wedding-23.2b.mp4,stims/wedding-23.3b.mp4,stims/wedding-23.4b.mp4,stims/wedding-23.5.mp4,stimsday2details/newpainting18.png,stimsday2details/painting23.png,stimsday2details/newperson35.png,stimsday2details/couple23.png,stimsday2details/gift23.png,stimsday2details/new35.png,stimsday2details/n23.png,stimsday2details/cn23.png,stimsday2details/t23.png,stimsday2details/ct23.png,0,10,10,10,,,,,,,,,,,,,0,0,0,0,,,,,,,,,,,,,,,,,,,,,,,,,,,,,,,None,None,None,None,None,None,None,None,None,None,None,None,None,None,None,None,None,None,None,,None,None,None,,None,None,,,,,,,,,,,,,,,,,,,,,,,,,,,,,,,,,,,,,,,,,,,,,,,,,,,001,28,2019_Nov_19_1000,viewing,3.1.2,59.63301322634205,
north.png,stims/wedding-23.1a.mp4,stims/wedding-23.1b.mp4,stims/wedding-23.2b.mp4,stims/wedding-23.3b.mp4,stims/wedding-23.4b.mp4,stims/wedding-23.5.mp4,stimsday2details/newpainting18.png,stimsday2details/painting23.png,stimsday2details/newperson35.png,stimsday2details/couple23.png,stimsday2details/gift23.png,stimsday2details/new35.png,stimsday2details/n23.png,stimsday2details/cn23.png,stimsday2details/t23.png,stimsday2details/ct23.png,0,10,10,10,,,,,,,,,,,,,,,,,,,,,,,,,,,,,,,,,,,,,,,,,,,,,,,,,,,,,,,,,,,,,,,,,,,,,,,,,3.8905069231987e-05,None,2,0.9361896039918065,1607.6706234379672,None,1607.6706234379672,None,1607.6706234379672,None,1609.6578752747737,None,3,0.7973536541685462,1609.6578752747737,None,1609.6578752747737,None,1611.654264011886,None,1611.654264011886,None,3,0.8504763338714838,1611.654264011886,None,2,0.8027562648057938,1613.6532232831232,None,1613.6532232831232,None,1613.6532232831232,None,1615.654200722929,None,1615.654200722929,None,2,0.7018019128590822,1615.654200722929,None,1617.6575229321606,None,1617.6575229321606,None,2,1.9570664446800947,1617.6575229321606,None,001,28,2019_Nov_19_1000,viewing,3.1.2,59.63301322634205,
south.png,stims/wedding-29.1a.mp4,stims/wedding-29.1b.mp4,stims/wedding-29.2a.mp4,stims/wedding-29.3b.mp4,stims/wedding-29.4a.mp4,stims/wedding-29.5.mp4,stimsday2details/egg29.png,stimsday2details/newegg18.png,stimsday2details/couple29.png,stimsday2details/newperson36.png,stimsday2details/gift29.png,stimsday2details/new36.png,stimsday2details/n29.png,stimsday2details/cn29.png,stimsday2details/t29.png,stimsday2details/ct29.png,0,11,11,11,0,0,0,0,,,,,,,,,,,,,,,,,,,,,,,,,1619.65855942294,None,,,,,,,,,,,,,,,,,,,,,,,,,,,,,,,,,,,,,,,,,,,,,,,,,,,,,,,,,,,,,,,,,,,,,,,,,,,,,,,,,,,,,,,,,,,,,001,28,2019_Nov_19_1000,viewing,3.1.2,59.63301322634205,
south.png,stims/wedding-29.1a.mp4,stims/wedding-29.1b.mp4,stims/wedding-29.2a.mp4,stims/wedding-29.3b.mp4,stims/wedding-29.4a.mp4,stims/wedding-29.5.mp4,stimsday2details/egg29.png,stimsday2details/newegg18.png,stimsday2details/couple29.png,stimsday2details/newperson36.png,stimsday2details/gift29.png,stimsday2details/new36.png,stimsday2details/n29.png,stimsday2details/cn29.png,stimsday2details/t29.png,stimsday2details/ct29.png,0,11,11,11,,,,,0,0,0,0,,,,,,,,,,,,,,,,,,,,,,,None,None,,,,,,,,,,,,,,,,,,,,,,,,,,,,,,,,,,,,,,,,,,,,,,,,,,,,,,,,,,,,,,,,,,,,,,,,,,,,,,,,,,,,,,,,,,,001,28,2019_Nov_19_1000,viewing,3.1.2,59.63301322634205,
south.png,stims/wedding-29.1a.mp4,stims/wedding-29.1b.mp4,stims/wedding-29.2a.mp4,stims/wedding-29.3b.mp4,stims/wedding-29.4a.mp4,stims/wedding-29.5.mp4,stimsday2details/egg29.png,stimsday2details/newegg18.png,stimsday2details/couple29.png,stimsday2details/newperson36.png,stimsday2details/gift29.png,stimsday2details/new36.png,stimsday2details/n29.png,stimsday2details/cn29.png,stimsday2details/t29.png,stimsday2details/ct29.png,0,11,11,11,,,,,,,,,0,0,0,0,,,,,,,,,,,,,,,,,,,,,None,None,None,None,None,None,None,None,None,None,None,None,None,None,,,,,,,,,,,,,,,,,,,,,,,,,,,,,,,,,,,,,,,,,,,,,,,,,,,,,,,,,,,,,,,,,,,,,,,,,,,,,001,28,2019_Nov_19_1000,viewing,3.1.2,59.63301322634205,
south.png,stims/wedding-29.1a.mp4,stims/wedding-29.1b.mp4,stims/wedding-29.2a.mp4,stims/wedding-29.3b.mp4,stims/wedding-29.4a.mp4,stims/wedding-29.5.mp4,stimsday2details/egg29.png,stimsday2details/newegg18.png,stimsday2details/couple29.png,stimsday2details/newperson36.png,stimsday2details/gift29.png,stimsday2details/new36.png,stimsday2details/n29.png,stimsday2details/cn29.png,stimsday2details/t29.png,stimsday2details/ct29.png,0,11,11,11,,,,,,,,,,,,,0,0,0,0,,,,,,,,,,,,,,,,,,,,,,,,,,,,,,,2.918859642930329,None,1633.353092793841,1658.4362972220406,1658.4528563241474,None,1667.4528429908678,None,1684.457496596966,1688.4364718617871,1688.4527720948681,1711.4399366737343,1711.4533622618765,1715.4391094730236,1715.4534519431181,None,1739.4520131167956,None,['2'],[3.3540241713635623],1683.4531413260847,1688.4364718617871,['2'],[2.488971975632012],1710.4534077467397,1715.4391094730236,,,,,,,,,,,,,,,,,,,,,,,,,,,,,,,,,,,,,,,,,,,,,,,,,,,001,28,2019_Nov_19_1000,viewing,3.1.2,59.63301322634205,
south.png,stims/wedding-29.1a.mp4,stims/wedding-29.1b.mp4,stims/wedding-29.2a.mp4,stims/wedding-29.3b.mp4,stims/wedding-29.4a.mp4,stims/wedding-29.5.mp4,stimsday2details/egg29.png,stimsday2details/newegg18.png,stimsday2details/couple29.png,stimsday2details/newperson36.png,stimsday2details/gift29.png,stimsday2details/new36.png,stimsday2details/n29.png,stimsday2details/cn29.png,stimsday2details/t29.png,stimsday2details/ct29.png,0,11,11,11,,,,,,,,,,,,,,,,,,,,,,,,,,,,,,,,,,,,,,,,,,,,,,,,,,,,,,,,,,,,,,,,,,,,,,,,,3.749970346689224e-05,None,2,0.7234072331339121,1760.0349243059754,None,1760.0349243059754,None,1760.0349243059754,None,1762.0193805368617,None,2,0.6674056379124522,1762.0193805368617,None,1762.0193805368617,None,1764.0182471927255,None,1764.0182471927255,None,2,0.6395605108700693,1764.0182471927255,None,2,0.9510554429143667,1766.0195006350987,None,1766.0195006350987,None,1766.0195006350987,None,1768.0194270429201,None,1768.0194270429201,None,2,0.5888214400038123,1768.0194270429201,None,1770.0221873437986,None,1770.0221873437986,None,3,1.0530387558974326,1770.0221873437986,None,001,28,2019_Nov_19_1000,viewing,3.1.2,59.63301322634205,
