northOrSouth,stimFile1a,stimFile1b,stimFile2,stimFile3,stimFile4,stimFile5,Qeggpainting1,Qeggpainting2,Qcharacter1,Qcharacter2,Qgift1,Qgift2,Qname1,Qname2,Qtheme1,Qtheme2,trials.thisRepN,trials.thisTrialN,trials.thisN,trials.thisIndex,South.thisRepN,South.thisTrialN,South.thisN,South.thisIndex,North.thisRepN,North.thisTrialN,North.thisN,North.thisIndex,noQtrials.thisRepN,noQtrials.thisTrialN,noQtrials.thisN,noQtrials.thisIndex,Qtrials.thisRepN,Qtrials.thisTrialN,Qtrials.thisN,Qtrials.thisIndex,text.started,text.stopped,prep_trigger.keys,prep_trigger.rt,prep_trigger.started,prep_trigger.stopped,waiting.started,waiting.stopped,trigger.keys,trigger.rt,trigger.started,trigger.stopped,southCueImage.started,southCueImage.stopped,northCueImage.started,northCueImage.stopped,trialNoQs.started,trialNoQs.stopped,vid1a.started,vid1a.stopped,vid1b.started,vid1b.stopped,vid2.started,vid2.stopped,vid3.started,vid3.stopped,vid4.started,vid4.stopped,vid5.started,vid5.stopped,ISI2.started,ISI2.stopped,vid1a_q.started,vid1a_q.stopped,vid1b_q.started,vid1b_q.stopped,vid2_q.started,vid2_q.stopped,l2q.started,l2q.stopped,vid3_q.started,vid3_q.stopped,l3q.started,l3q.stopped,vid4_q.started,vid4_q.stopped,vid5_q.started,vid5_q.stopped,key_resp_2.keys,key_resp_2.rt,key_resp_2.started,key_resp_2.stopped,key_resp_3.keys,key_resp_3.started,key_resp_3.stopped,ISI7.started,ISI7.stopped,nameQresp.keys,nameQresp.rt,nameQresp.started,nameQresp.stopped,nameQ1.started,nameQ1.stopped,nameQ2.started,nameQ2.stopped,eggPainting1.started,eggPainting1.stopped,eggPaintingQresp.keys,eggPaintingQresp.rt,eggPaintingQresp.started,eggPaintingQresp.stopped,eggPainting2.started,eggPainting2.stopped,character1.started,character1.stopped,character2.started,character2.stopped,Qcharacter.keys,Qcharacter.rt,Qcharacter.started,Qcharacter.stopped,themeQresp.keys,themeQresp.rt,themeQresp.started,themeQresp.stopped,themeQ1.started,themeQ1.stopped,themeQ2.started,themeQ2.stopped,gift1.started,gift1.stopped,gift2.started,gift2.stopped,giftQresp.keys,giftQresp.rt,giftQresp.started,giftQresp.stopped,northorsouth1.started,northorsouth1.stopped,northorsouth2.started,northorsouth2.stopped,northOrSouthQ.keys,northOrSouthQ.rt,northOrSouthQ.started,northOrSouthQ.stopped,key_resp_3.rt,session,participant,date,expName,psychopyVersion,frameRate,
,,,,,,,,,,,,,,,,,,,,,,,,,,,,,,,,,,,,,7.281082275992958,None,g,1.633726033003768,7.281082275992958,None,,,,,,,,,,,,,,,,,,,,,,,,,,,,,,,,,,,,,,,,,,,,,,,,,,,,,,,,,,,,,,,,,,,,,,,,,,,,,,,,,,,,,,,,,,,,,,,,,,,,,001,1,2019_Jun_12_0911,viewing,3.1.2,60.00261503550949,
,,,,,,,,,,,,,,,,,,,,,,,,,,,,,,,,,,,,,,,,,,,8.931116428997484,None,equal,42.81846267900255,8.931116428997484,None,,,,,,,,,,,,,,,,,,,,,,,,,,,,,,,,,,,,,,,,,,,,,,,,,,,,,,,,,,,,,,,,,,,,,,,,,,,,,,,,,,,,,,,,,,,,,,,001,1,2019_Jun_12_0911,viewing,3.1.2,60.00261503550949,
south.png,stims/wedding-20.1a.mp4,stims/wedding-20.1b.mp4,stims/wedding-20.2b.mp4,stims/wedding-20.3a.mp4,stims/wedding-20.4b.mp4,stims/wedding-20.5.mp4,stimsday2details/painting20.png,stimsday2details/newpainting13.png,stimsday2details/newperson25.png,stimsday2details/couple20.png,stimsday2details/new25.png,stimsday2details/gift20.png,stimsday2details/cn20.png,stimsday2details/n20.png,stimsday2details/ct20.png,stimsday2details/t20.png,0,0,0,0,0,0,0,0,,,,,,,,,,,,,,,,,,,,,,,,,51.797260805993574,None,,,,,,,,,,,,,,,,,,,,,,,,,,,,,,,,,,,,,,,,,,,,,,,,,,,,,,,,,,,,,,,,,,,,,,,,,,,,,,,,,,,,,,,,,,,,,001,1,2019_Jun_12_0911,viewing,3.1.2,60.00261503550949,
south.png,stims/wedding-20.1a.mp4,stims/wedding-20.1b.mp4,stims/wedding-20.2b.mp4,stims/wedding-20.3a.mp4,stims/wedding-20.4b.mp4,stims/wedding-20.5.mp4,stimsday2details/painting20.png,stimsday2details/newpainting13.png,stimsday2details/newperson25.png,stimsday2details/couple20.png,stimsday2details/new25.png,stimsday2details/gift20.png,stimsday2details/cn20.png,stimsday2details/n20.png,stimsday2details/ct20.png,stimsday2details/t20.png,0,0,0,0,,,,,0,0,0,0,,,,,,,,,,,,,,,,,,,,,,,None,None,,,,,,,,,,,,,,,,,,,,,,,,,,,,,,,,,,,,,,,,,,,,,,,,,,,,,,,,,,,,,,,,,,,,,,,,,,,,,,,,,,,,,,,,,,,001,1,2019_Jun_12_0911,viewing,3.1.2,60.00261503550949,
south.png,stims/wedding-20.1a.mp4,stims/wedding-20.1b.mp4,stims/wedding-20.2b.mp4,stims/wedding-20.3a.mp4,stims/wedding-20.4b.mp4,stims/wedding-20.5.mp4,stimsday2details/painting20.png,stimsday2details/newpainting13.png,stimsday2details/newperson25.png,stimsday2details/couple20.png,stimsday2details/new25.png,stimsday2details/gift20.png,stimsday2details/cn20.png,stimsday2details/n20.png,stimsday2details/ct20.png,stimsday2details/t20.png,0,0,0,0,,,,,,,,,0,0,0,0,,,,,,,,,,,,,,,,,,,,,None,None,None,None,None,None,None,None,None,None,None,None,None,None,,,,,,,,,,,,,,,,,,,,,,,,,,,,,,,,,,,,,,,,,,,,,,,,,,,,,,,,,,,,,,,,,,,,,,,,,,,,,001,1,2019_Jun_12_0911,viewing,3.1.2,60.00261503550949,
south.png,stims/wedding-20.1a.mp4,stims/wedding-20.1b.mp4,stims/wedding-20.2b.mp4,stims/wedding-20.3a.mp4,stims/wedding-20.4b.mp4,stims/wedding-20.5.mp4,stimsday2details/painting20.png,stimsday2details/newpainting13.png,stimsday2details/newperson25.png,stimsday2details/couple20.png,stimsday2details/new25.png,stimsday2details/gift20.png,stimsday2details/cn20.png,stimsday2details/n20.png,stimsday2details/ct20.png,stimsday2details/t20.png,0,0,0,0,,,,,,,,,,,,,0,0,0,0,,,,,,,,,,,,,,,,,,,,,,,,,,,,,,,2.4737377029960044,None,64.06384715699824,89.59680862000096,89.6134774319944,None,98.61335920599231,None,115.61307262799528,119.59644082198793,119.61305654299213,142.59610169799998,142.61286933098745,146.59611137899628,146.61275990799186,None,170.61248853999132,None,['1'],[4.752064942003926],114.6131812199892,119.59644082198793,None,141.61284127899853,146.59611137899628,,,,,,,,,,,,,,,,,,,,,,,,,,,,,,,,,,,,,,,,,,,,,,,,,,,,001,1,2019_Jun_12_0911,viewing,3.1.2,60.00261503550949,
south.png,stims/wedding-20.1a.mp4,stims/wedding-20.1b.mp4,stims/wedding-20.2b.mp4,stims/wedding-20.3a.mp4,stims/wedding-20.4b.mp4,stims/wedding-20.5.mp4,stimsday2details/painting20.png,stimsday2details/newpainting13.png,stimsday2details/newperson25.png,stimsday2details/couple20.png,stimsday2details/new25.png,stimsday2details/gift20.png,stimsday2details/cn20.png,stimsday2details/n20.png,stimsday2details/ct20.png,stimsday2details/t20.png,0,0,0,0,,,,,,,,,,,,,,,,,,,,,,,,,,,,,,,,,,,,,,,,,,,,,,,,,,,,,,,,,,,,,,,,,,,,,,,,2.3270011297427118e-05,None,2,1.1185997080028756,190.27891725600057,None,190.27891725600057,None,190.27891725600057,None,192.26223235399812,None,1,0.7683322780067101,192.26223235399812,None,192.26223235399812,None,194.26227773999562,None,194.26227773999562,None,2,0.8684848670091014,194.26227773999562,None,2,1.2684818600100698,196.2620983129891,None,196.2620983129891,None,196.2620983129891,None,198.26211624698772,None,198.26211624698772,None,2,1.0020333409920568,198.26211624698772,None,200.26213082499453,None,200.26213082499453,None,2,0.8521694530063542,200.26213082499453,None,,001,1,2019_Jun_12_0911,viewing,3.1.2,60.00261503550949,
north.png,stims/wedding-6.1a.mp4,stims/wedding-6.1b.mp4,stims/wedding-6.2b.mp4,stims/wedding-6.3b.mp4,stims/wedding-6.4b.mp4,stims/wedding-6.5.mp4,stimsday2details/painting6.png,stimsday2details/newpainting14.png,stimsday2details/newperson26.png,stimsday2details/couple6.png,stimsday2details/new26.png,stimsday2details/gift6.png,stimsday2details/cn6.png,stimsday2details/n6.png,stimsday2details/t6.png,stimsday2details/ct6.png,0,1,1,1,0,0,0,0,,,,,,,,,,,,,,,,,,,,,,,,,None,None,,,,,,,,,,,,,,,,,,,,,,,,,,,,,,,,,,,,,,,,,,,,,,,,,,,,,,,,,,,,,,,,,,,,,,,,,,,,,,,,,,,,,,,,,,,,,001,1,2019_Jun_12_0911,viewing,3.1.2,60.00261503550949,
north.png,stims/wedding-6.1a.mp4,stims/wedding-6.1b.mp4,stims/wedding-6.2b.mp4,stims/wedding-6.3b.mp4,stims/wedding-6.4b.mp4,stims/wedding-6.5.mp4,stimsday2details/painting6.png,stimsday2details/newpainting14.png,stimsday2details/newperson26.png,stimsday2details/couple6.png,stimsday2details/new26.png,stimsday2details/gift6.png,stimsday2details/cn6.png,stimsday2details/n6.png,stimsday2details/t6.png,stimsday2details/ct6.png,0,1,1,1,,,,,0,0,0,0,,,,,,,,,,,,,,,,,,,,,,,202.31211123199319,None,,,,,,,,,,,,,,,,,,,,,,,,,,,,,,,,,,,,,,,,,,,,,,,,,,,,,,,,,,,,,,,,,,,,,,,,,,,,,,,,,,,,,,,,,,,001,1,2019_Jun_12_0911,viewing,3.1.2,60.00261503550949,
north.png,stims/wedding-6.1a.mp4,stims/wedding-6.1b.mp4,stims/wedding-6.2b.mp4,stims/wedding-6.3b.mp4,stims/wedding-6.4b.mp4,stims/wedding-6.5.mp4,stimsday2details/painting6.png,stimsday2details/newpainting14.png,stimsday2details/newperson26.png,stimsday2details/couple6.png,stimsday2details/new26.png,stimsday2details/gift6.png,stimsday2details/cn6.png,stimsday2details/n6.png,stimsday2details/t6.png,stimsday2details/ct6.png,0,1,1,1,,,,,,,,,0,0,0,0,,,,,,,,,,,,,,,,,,,,,2.707344747002935,None,212.06204917699506,237.36173963498732,237.378349333987,None,246.37824248899415,None,263.37802968100004,286.36102478799876,286.3777455519885,None,310.37754857599793,None,,,,,,,,,,,,,,,,,,,,,,,,,,,,,,,,,,,,,,,,,,,,,,,,,,,,,,,,,,,,,,,,,,,,,,,,,,,,,001,1,2019_Jun_12_0911,viewing,3.1.2,60.00261503550949,
north.png,stims/wedding-6.1a.mp4,stims/wedding-6.1b.mp4,stims/wedding-6.2b.mp4,stims/wedding-6.3b.mp4,stims/wedding-6.4b.mp4,stims/wedding-6.5.mp4,stimsday2details/painting6.png,stimsday2details/newpainting14.png,stimsday2details/newperson26.png,stimsday2details/couple6.png,stimsday2details/new26.png,stimsday2details/gift6.png,stimsday2details/cn6.png,stimsday2details/n6.png,stimsday2details/t6.png,stimsday2details/ct6.png,0,1,1,1,,,,,,,,,,,,,0,0,0,0,,,,,,,,,,,,,,,,,,,,,,,,,,,,,,,None,None,None,None,None,None,None,None,None,None,None,None,None,None,None,None,None,None,None,,None,None,None,None,None,,,,,,,,,,,,,,,,,,,,,,,,,,,,,,,,,,,,,,,,,,,,,,,,,,,,001,1,2019_Jun_12_0911,viewing,3.1.2,60.00261503550949,
north.png,stims/wedding-6.1a.mp4,stims/wedding-6.1b.mp4,stims/wedding-6.2b.mp4,stims/wedding-6.3b.mp4,stims/wedding-6.4b.mp4,stims/wedding-6.5.mp4,stimsday2details/painting6.png,stimsday2details/newpainting14.png,stimsday2details/newperson26.png,stimsday2details/couple6.png,stimsday2details/new26.png,stimsday2details/gift6.png,stimsday2details/cn6.png,stimsday2details/n6.png,stimsday2details/t6.png,stimsday2details/ct6.png,0,1,1,1,,,,,,,,,,,,,,,,,,,,,,,,,,,,,,,,,,,,,,,,,,,,,,,,,,,,,,,,,,,,,,,,,,,,,,,,2.486200537532568e-05,None,2,1.2352229450043524,333.7938998789905,None,333.7938998789905,None,333.7938998789905,None,335.79381374799414,None,1,0.6851203240075847,335.79381374799414,None,335.79381374799414,None,337.7937909389875,None,337.7937909389875,None,2,0.8184122910024598,337.7937909389875,None,1,1.2356349869951373,339.7937061989942,None,339.7937061989942,None,339.7937061989942,None,341.7937488729949,None,341.7937488729949,None,2,0.7183914079942042,341.7937488729949,None,343.7937201439927,None,343.7937201439927,None,1,0.8516698430030374,343.7937201439927,None,,001,1,2019_Jun_12_0911,viewing,3.1.2,60.00261503550949,
north.png,stims/wedding-34.1a.mp4,stims/wedding-34.1b.mp4,stims/wedding-34.2b.mp4,stims/wedding-34.3b.mp4,stims/wedding-34.4b.mp4,stims/wedding-34.5.mp4,stimsday2details/painting34.png,stimsday2details/newpainting15.png,stimsday2details/couple34.png,stimsday2details/newperson27.png,stimsday2details/gift34.png,stimsday2details/new27.png,stimsday2details/n34.png,stimsday2details/cn34.png,stimsday2details/ct34.png,stimsday2details/t34.png,0,2,2,2,0,0,0,0,,,,,,,,,,,,,,,,,,,,,,,,,None,None,,,,,,,,,,,,,,,,,,,,,,,,,,,,,,,,,,,,,,,,,,,,,,,,,,,,,,,,,,,,,,,,,,,,,,,,,,,,,,,,,,,,,,,,,,,,,001,1,2019_Jun_12_0911,viewing,3.1.2,60.00261503550949,
north.png,stims/wedding-34.1a.mp4,stims/wedding-34.1b.mp4,stims/wedding-34.2b.mp4,stims/wedding-34.3b.mp4,stims/wedding-34.4b.mp4,stims/wedding-34.5.mp4,stimsday2details/painting34.png,stimsday2details/newpainting15.png,stimsday2details/couple34.png,stimsday2details/newperson27.png,stimsday2details/gift34.png,stimsday2details/new27.png,stimsday2details/n34.png,stimsday2details/cn34.png,stimsday2details/ct34.png,stimsday2details/t34.png,0,2,2,2,,,,,0,0,0,0,,,,,,,,,,,,,,,,,,,,,,,345.86035780599923,None,,,,,,,,,,,,,,,,,,,,,,,,,,,,,,,,,,,,,,,,,,,,,,,,,,,,,,,,,,,,,,,,,,,,,,,,,,,,,,,,,,,,,,,,,,,001,1,2019_Jun_12_0911,viewing,3.1.2,60.00261503550949,
north.png,stims/wedding-34.1a.mp4,stims/wedding-34.1b.mp4,stims/wedding-34.2b.mp4,stims/wedding-34.3b.mp4,stims/wedding-34.4b.mp4,stims/wedding-34.5.mp4,stimsday2details/painting34.png,stimsday2details/newpainting15.png,stimsday2details/couple34.png,stimsday2details/newperson27.png,stimsday2details/gift34.png,stimsday2details/new27.png,stimsday2details/n34.png,stimsday2details/cn34.png,stimsday2details/ct34.png,stimsday2details/t34.png,0,2,2,2,,,,,,,,,0,0,0,0,,,,,,,,,,,,,,,,,,,,,2.763068625004962,None,355.69363447900105,380.9266058559879,380.9432063109998,389.9264886299934,389.94315961399116,None,406.9429525029991,429.92600061198755,429.9426725569938,None,453.9423768790002,None,,,,,,,,,,,,,,,,,,,,,,,,,,,,,,,,,,,,,,,,,,,,,,,,,,,,,,,,,,,,,,,,,,,,,,,,,,,,,001,1,2019_Jun_12_0911,viewing,3.1.2,60.00261503550949,
north.png,stims/wedding-34.1a.mp4,stims/wedding-34.1b.mp4,stims/wedding-34.2b.mp4,stims/wedding-34.3b.mp4,stims/wedding-34.4b.mp4,stims/wedding-34.5.mp4,stimsday2details/painting34.png,stimsday2details/newpainting15.png,stimsday2details/couple34.png,stimsday2details/newperson27.png,stimsday2details/gift34.png,stimsday2details/new27.png,stimsday2details/n34.png,stimsday2details/cn34.png,stimsday2details/ct34.png,stimsday2details/t34.png,0,2,2,2,,,,,,,,,,,,,0,0,0,0,,,,,,,,,,,,,,,,,,,,,,,,,,,,,,,None,None,None,None,None,None,None,None,None,None,None,None,None,None,None,None,None,None,None,,None,None,None,None,None,,,,,,,,,,,,,,,,,,,,,,,,,,,,,,,,,,,,,,,,,,,,,,,,,,,,001,1,2019_Jun_12_0911,viewing,3.1.2,60.00261503550949,
north.png,stims/wedding-34.1a.mp4,stims/wedding-34.1b.mp4,stims/wedding-34.2b.mp4,stims/wedding-34.3b.mp4,stims/wedding-34.4b.mp4,stims/wedding-34.5.mp4,stimsday2details/painting34.png,stimsday2details/newpainting15.png,stimsday2details/couple34.png,stimsday2details/newperson27.png,stimsday2details/gift34.png,stimsday2details/new27.png,stimsday2details/n34.png,stimsday2details/cn34.png,stimsday2details/ct34.png,stimsday2details/t34.png,0,2,2,2,,,,,,,,,,,,,,,,,,,,,,,,,,,,,,,,,,,,,,,,,,,,,,,,,,,,,,,,,,,,,,,,,,,,,,,,3.679099609144032e-05,None,1,1.1684392179886345,477.1254892750003,None,477.1254892750003,None,477.1254892750003,None,479.1253992790007,None,1,0.8183499529986875,479.1253992790007,None,479.1253992790007,None,481.125373013987,None,481.125373013987,None,1,1.0184013949910877,481.125373013987,None,2,1.001843589998316,483.1253577499883,None,483.1253577499883,None,483.1253577499883,None,485.12541193599463,None,485.12541193599463,None,1,0.8182745789963519,485.12541193599463,None,487.12523967299785,None,487.12523967299785,None,1,1.4854293090029387,487.12523967299785,None,,001,1,2019_Jun_12_0911,viewing,3.1.2,60.00261503550949,
south.png,stims/wedding-22.1a.mp4,stims/wedding-22.1b.mp4,stims/wedding-22.2a.mp4,stims/wedding-22.3b.mp4,stims/wedding-22.4a.mp4,stims/wedding-22.5.mp4,stimsday2details/egg22.png,stimsday2details/newegg13.png,stimsday2details/newperson28.png,stimsday2details/couple22.png,stimsday2details/new28.png,stimsday2details/gift22.png,stimsday2details/cn22.png,stimsday2details/n22.png,stimsday2details/t22.png,stimsday2details/ct22.png,0,3,3,3,0,0,0,0,,,,,,,,,,,,,,,,,,,,,,,,,489.1252946899913,None,,,,,,,,,,,,,,,,,,,,,,,,,,,,,,,,,,,,,,,,,,,,,,,,,,,,,,,,,,,,,,,,,,,,,,,,,,,,,,,,,,,,,,,,,,,,,001,1,2019_Jun_12_0911,viewing,3.1.2,60.00261503550949,
south.png,stims/wedding-22.1a.mp4,stims/wedding-22.1b.mp4,stims/wedding-22.2a.mp4,stims/wedding-22.3b.mp4,stims/wedding-22.4a.mp4,stims/wedding-22.5.mp4,stimsday2details/egg22.png,stimsday2details/newegg13.png,stimsday2details/newperson28.png,stimsday2details/couple22.png,stimsday2details/new28.png,stimsday2details/gift22.png,stimsday2details/cn22.png,stimsday2details/n22.png,stimsday2details/t22.png,stimsday2details/ct22.png,0,3,3,3,,,,,0,0,0,0,,,,,,,,,,,,,,,,,,,,,,,None,None,,,,,,,,,,,,,,,,,,,,,,,,,,,,,,,,,,,,,,,,,,,,,,,,,,,,,,,,,,,,,,,,,,,,,,,,,,,,,,,,,,,,,,,,,,,001,1,2019_Jun_12_0911,viewing,3.1.2,60.00261503550949,
south.png,stims/wedding-22.1a.mp4,stims/wedding-22.1b.mp4,stims/wedding-22.2a.mp4,stims/wedding-22.3b.mp4,stims/wedding-22.4a.mp4,stims/wedding-22.5.mp4,stimsday2details/egg22.png,stimsday2details/newegg13.png,stimsday2details/newperson28.png,stimsday2details/couple22.png,stimsday2details/new28.png,stimsday2details/gift22.png,stimsday2details/cn22.png,stimsday2details/n22.png,stimsday2details/t22.png,stimsday2details/ct22.png,0,3,3,3,,,,,,,,,0,0,0,0,,,,,,,,,,,,,,,,,,,,,2.873665125007392,None,499.17522679099056,524.3081854109914,524.324850221994,None,533.3247397159867,550.3078650109965,550.3245346369949,573.3075853379996,573.3242499389889,597.3072295099992,597.3239620479872,None,,,,,,,,,,,,,,,,,,,,,,,,,,,,,,,,,,,,,,,,,,,,,,,,,,,,,,,,,,,,,,,,,,,,,,,,,,,,,001,1,2019_Jun_12_0911,viewing,3.1.2,60.00261503550949,
south.png,stims/wedding-22.1a.mp4,stims/wedding-22.1b.mp4,stims/wedding-22.2a.mp4,stims/wedding-22.3b.mp4,stims/wedding-22.4a.mp4,stims/wedding-22.5.mp4,stimsday2details/egg22.png,stimsday2details/newegg13.png,stimsday2details/newperson28.png,stimsday2details/couple22.png,stimsday2details/new28.png,stimsday2details/gift22.png,stimsday2details/cn22.png,stimsday2details/n22.png,stimsday2details/t22.png,stimsday2details/ct22.png,0,3,3,3,,,,,,,,,,,,,0,0,0,0,,,,,,,,,,,,,,,,,,,,,,,,,,,,,,,None,None,None,None,None,None,None,None,None,None,None,None,None,None,None,None,None,None,None,,None,None,None,None,None,,,,,,,,,,,,,,,,,,,,,,,,,,,,,,,,,,,,,,,,,,,,,,,,,,,,001,1,2019_Jun_12_0911,viewing,3.1.2,60.00261503550949,
south.png,stims/wedding-22.1a.mp4,stims/wedding-22.1b.mp4,stims/wedding-22.2a.mp4,stims/wedding-22.3b.mp4,stims/wedding-22.4a.mp4,stims/wedding-22.5.mp4,stimsday2details/egg22.png,stimsday2details/newegg13.png,stimsday2details/newperson28.png,stimsday2details/couple22.png,stimsday2details/new28.png,stimsday2details/gift22.png,stimsday2details/cn22.png,stimsday2details/n22.png,stimsday2details/t22.png,stimsday2details/ct22.png,0,3,3,3,,,,,,,,,,,,,,,,,,,,,,,,,,,,,,,,,,,,,,,,,,,,,,,,,,,,,,,,,,,,,,,,,,,,,,,,3.718600783031434e-05,None,2,0.8020985479961382,620.857065543998,None,620.857065543998,None,620.857065543998,None,622.8569756709912,None,1,0.6518697879946558,622.8569756709912,None,622.8569756709912,None,624.8569560949982,None,624.8569560949982,None,2,0.8184073720040033,624.8569560949982,None,1,1.468322556000203,626.856930598995,None,626.856930598995,None,626.856930598995,None,628.8569133479905,None,628.8569133479905,None,2,0.9687115150009049,628.8569133479905,None,630.8568901599938,None,630.8568901599938,None,2,0.8021877880091779,630.8568901599938,None,,001,1,2019_Jun_12_0911,viewing,3.1.2,60.00261503550949,
south.png,stims/wedding-23.1a.mp4,stims/wedding-23.1b.mp4,stims/wedding-23.2a.mp4,stims/wedding-23.3b.mp4,stims/wedding-23.4a.mp4,stims/wedding-23.5.mp4,stimsday2details/egg23.png,stimsday2details/newegg14.png,stimsday2details/newperson29.png,stimsday2details/couple23.png,stimsday2details/gift23.png,stimsday2details/new29.png,stimsday2details/cn23.png,stimsday2details/n23.png,stimsday2details/ct23.png,stimsday2details/t23.png,0,4,4,4,0,0,0,0,,,,,,,,,,,,,,,,,,,,,,,,,632.8568621569866,None,,,,,,,,,,,,,,,,,,,,,,,,,,,,,,,,,,,,,,,,,,,,,,,,,,,,,,,,,,,,,,,,,,,,,,,,,,,,,,,,,,,,,,,,,,,,,001,1,2019_Jun_12_0911,viewing,3.1.2,60.00261503550949,
south.png,stims/wedding-23.1a.mp4,stims/wedding-23.1b.mp4,stims/wedding-23.2a.mp4,stims/wedding-23.3b.mp4,stims/wedding-23.4a.mp4,stims/wedding-23.5.mp4,stimsday2details/egg23.png,stimsday2details/newegg14.png,stimsday2details/newperson29.png,stimsday2details/couple23.png,stimsday2details/gift23.png,stimsday2details/new29.png,stimsday2details/cn23.png,stimsday2details/n23.png,stimsday2details/ct23.png,stimsday2details/t23.png,0,4,4,4,,,,,0,0,0,0,,,,,,,,,,,,,,,,,,,,,,,None,None,,,,,,,,,,,,,,,,,,,,,,,,,,,,,,,,,,,,,,,,,,,,,,,,,,,,,,,,,,,,,,,,,,,,,,,,,,,,,,,,,,,,,,,,,,,001,1,2019_Jun_12_0911,viewing,3.1.2,60.00261503550949,
south.png,stims/wedding-23.1a.mp4,stims/wedding-23.1b.mp4,stims/wedding-23.2a.mp4,stims/wedding-23.3b.mp4,stims/wedding-23.4a.mp4,stims/wedding-23.5.mp4,stimsday2details/egg23.png,stimsday2details/newegg14.png,stimsday2details/newperson29.png,stimsday2details/couple23.png,stimsday2details/gift23.png,stimsday2details/new29.png,stimsday2details/cn23.png,stimsday2details/n23.png,stimsday2details/ct23.png,stimsday2details/t23.png,0,4,4,4,,,,,,,,,0,0,0,0,,,,,,,,,,,,,,,,,,,,,2.872239300995716,None,642.9615217609971,668.0897637489979,668.0897637489979,None,677.0896563649876,694.08944294299,694.08944294299,717.0891596089932,717.1058301919984,741.0888696929906,741.1055365539942,None,,,,,,,,,,,,,,,,,,,,,,,,,,,,,,,,,,,,,,,,,,,,,,,,,,,,,,,,,,,,,,,,,,,,,,,,,,,,,001,1,2019_Jun_12_0911,viewing,3.1.2,60.00261503550949,
south.png,stims/wedding-23.1a.mp4,stims/wedding-23.1b.mp4,stims/wedding-23.2a.mp4,stims/wedding-23.3b.mp4,stims/wedding-23.4a.mp4,stims/wedding-23.5.mp4,stimsday2details/egg23.png,stimsday2details/newegg14.png,stimsday2details/newperson29.png,stimsday2details/couple23.png,stimsday2details/gift23.png,stimsday2details/new29.png,stimsday2details/cn23.png,stimsday2details/n23.png,stimsday2details/ct23.png,stimsday2details/t23.png,0,4,4,4,,,,,,,,,,,,,0,0,0,0,,,,,,,,,,,,,,,,,,,,,,,,,,,,,,,None,None,None,None,None,None,None,None,None,None,None,None,None,None,None,None,None,None,None,,None,None,None,None,None,,,,,,,,,,,,,,,,,,,,,,,,,,,,,,,,,,,,,,,,,,,,,,,,,,,,001,1,2019_Jun_12_0911,viewing,3.1.2,60.00261503550949,
south.png,stims/wedding-23.1a.mp4,stims/wedding-23.1b.mp4,stims/wedding-23.2a.mp4,stims/wedding-23.3b.mp4,stims/wedding-23.4a.mp4,stims/wedding-23.5.mp4,stimsday2details/egg23.png,stimsday2details/newegg14.png,stimsday2details/newperson29.png,stimsday2details/couple23.png,stimsday2details/gift23.png,stimsday2details/new29.png,stimsday2details/cn23.png,stimsday2details/n23.png,stimsday2details/ct23.png,stimsday2details/t23.png,0,4,4,4,,,,,,,,,,,,,,,,,,,,,,,,,,,,,,,,,,,,,,,,,,,,,,,,,,,,,,,,,,,,,,,,,,,,,,,,4.507199628278613e-05,None,2,1.1690451039903564,765.271860348992,None,765.271860348992,None,765.271860348992,None,767.2552141839988,None,1,0.7669993309973506,767.2552141839988,None,767.2552141839988,None,769.2552025319892,None,769.2552025319892,None,2,0.8183695750049083,769.2552025319892,None,2,1.301885521010263,771.255162092988,None,771.255162092988,None,771.255162092988,None,773.2551424569974,None,773.2551424569974,None,1,0.7352849790040636,773.2551424569974,None,775.2551128099876,None,775.2551128099876,None,2,0.7517847080016509,775.2551128099876,None,,001,1,2019_Jun_12_0911,viewing,3.1.2,60.00261503550949,
north.png,stims/wedding-19.1a.mp4,stims/wedding-19.1b.mp4,stims/wedding-19.2a.mp4,stims/wedding-19.3a.mp4,stims/wedding-19.4a.mp4,stims/wedding-19.5.mp4,stimsday2details/newegg15.png,stimsday2details/egg19.png,stimsday2details/couple19.png,stimsday2details/newperson30.png,stimsday2details/new30.png,stimsday2details/gift19.png,stimsday2details/n19.png,stimsday2details/cn19.png,stimsday2details/ct19.png,stimsday2details/t19.png,0,5,5,5,0,0,0,0,,,,,,,,,,,,,,,,,,,,,,,,,None,None,,,,,,,,,,,,,,,,,,,,,,,,,,,,,,,,,,,,,,,,,,,,,,,,,,,,,,,,,,,,,,,,,,,,,,,,,,,,,,,,,,,,,,,,,,,,,001,1,2019_Jun_12_0911,viewing,3.1.2,60.00261503550949,
north.png,stims/wedding-19.1a.mp4,stims/wedding-19.1b.mp4,stims/wedding-19.2a.mp4,stims/wedding-19.3a.mp4,stims/wedding-19.4a.mp4,stims/wedding-19.5.mp4,stimsday2details/newegg15.png,stimsday2details/egg19.png,stimsday2details/couple19.png,stimsday2details/newperson30.png,stimsday2details/new30.png,stimsday2details/gift19.png,stimsday2details/n19.png,stimsday2details/cn19.png,stimsday2details/ct19.png,stimsday2details/t19.png,0,5,5,5,,,,,0,0,0,0,,,,,,,,,,,,,,,,,,,,,,,777.3884260949999,None,,,,,,,,,,,,,,,,,,,,,,,,,,,,,,,,,,,,,,,,,,,,,,,,,,,,,,,,,,,,,,,,,,,,,,,,,,,,,,,,,,,,,,,,,,,001,1,2019_Jun_12_0911,viewing,3.1.2,60.00261503550949,
north.png,stims/wedding-19.1a.mp4,stims/wedding-19.1b.mp4,stims/wedding-19.2a.mp4,stims/wedding-19.3a.mp4,stims/wedding-19.4a.mp4,stims/wedding-19.5.mp4,stimsday2details/newegg15.png,stimsday2details/egg19.png,stimsday2details/couple19.png,stimsday2details/newperson30.png,stimsday2details/new30.png,stimsday2details/gift19.png,stimsday2details/n19.png,stimsday2details/cn19.png,stimsday2details/ct19.png,stimsday2details/t19.png,0,5,5,5,,,,,,,,,0,0,0,0,,,,,,,,,,,,,,,,,,,,,2.8801082580030197,None,787.4097746359912,812.5213214859978,812.5379544959869,None,821.5378839589976,838.5210113639914,838.5376745589892,861.5207253779954,861.5373894809891,None,885.5371047679946,None,,,,,,,,,,,,,,,,,,,,,,,,,,,,,,,,,,,,,,,,,,,,,,,,,,,,,,,,,,,,,,,,,,,,,,,,,,,,,001,1,2019_Jun_12_0911,viewing,3.1.2,60.00261503550949,
north.png,stims/wedding-19.1a.mp4,stims/wedding-19.1b.mp4,stims/wedding-19.2a.mp4,stims/wedding-19.3a.mp4,stims/wedding-19.4a.mp4,stims/wedding-19.5.mp4,stimsday2details/newegg15.png,stimsday2details/egg19.png,stimsday2details/couple19.png,stimsday2details/newperson30.png,stimsday2details/new30.png,stimsday2details/gift19.png,stimsday2details/n19.png,stimsday2details/cn19.png,stimsday2details/ct19.png,stimsday2details/t19.png,0,5,5,5,,,,,,,,,,,,,0,0,0,0,,,,,,,,,,,,,,,,,,,,,,,,,,,,,,,None,None,None,None,None,None,None,None,None,None,None,None,None,None,None,None,None,None,None,,None,None,None,None,None,,,,,,,,,,,,,,,,,,,,,,,,,,,,,,,,,,,,,,,,,,,,,,,,,,,,001,1,2019_Jun_12_0911,viewing,3.1.2,60.00261503550949,
north.png,stims/wedding-19.1a.mp4,stims/wedding-19.1b.mp4,stims/wedding-19.2a.mp4,stims/wedding-19.3a.mp4,stims/wedding-19.4a.mp4,stims/wedding-19.5.mp4,stimsday2details/newegg15.png,stimsday2details/egg19.png,stimsday2details/couple19.png,stimsday2details/newperson30.png,stimsday2details/new30.png,stimsday2details/gift19.png,stimsday2details/n19.png,stimsday2details/cn19.png,stimsday2details/ct19.png,stimsday2details/t19.png,0,5,5,5,,,,,,,,,,,,,,,,,,,,,,,,,,,,,,,,,,,,,,,,,,,,,,,,,,,,,,,,,,,,,,,,,,,,,,,,4.2163010220974684e-05,None,1,1.7182340160070453,909.6535331569903,None,909.6535331569903,None,909.6535331569903,None,911.6534462549898,None,2,1.0354009440052323,911.6534462549898,None,911.6534462549898,None,913.6534179489972,None,913.6534179489972,None,1,0.8518409499956761,913.6534179489972,None,2,1.3516538200055948,915.6534632979892,None,915.6534632979892,None,915.6534632979892,None,917.6533845049998,None,917.6533845049998,None,2,0.752504139993107,917.6533845049998,None,919.6533009259874,None,919.6533009259874,None,2,1.935090302999015,919.6533009259874,None,,001,1,2019_Jun_12_0911,viewing,3.1.2,60.00261503550949,
north.png,stims/wedding-1.1a.mp4,stims/wedding-1.1b.mp4,stims/wedding-1.2a.mp4,stims/wedding-1.3a.mp4,stims/wedding-1.4a.mp4,stims/wedding-1.5.mp4,stimsday2details/newegg16.png,stimsday2details/egg1.png,stimsday2details/newperson31.png,stimsday2details/couple1.png,stimsday2details/gift1.png,stimsday2details/new31.png,stimsday2details/cn1.png,stimsday2details/n1.png,stimsday2details/t1.png,stimsday2details/ct1.png,0,6,6,6,0,0,0,0,,,,,,,,,,,,,,,,,,,,,,,,,None,None,,,,,,,,,,,,,,,,,,,,,,,,,,,,,,,,,,,,,,,,,,,,,,,,,,,,,,,,,,,,,,,,,,,,,,,,,,,,,,,,,,,,,,,,,,,,,001,1,2019_Jun_12_0911,viewing,3.1.2,60.00261503550949,
north.png,stims/wedding-1.1a.mp4,stims/wedding-1.1b.mp4,stims/wedding-1.2a.mp4,stims/wedding-1.3a.mp4,stims/wedding-1.4a.mp4,stims/wedding-1.5.mp4,stimsday2details/newegg16.png,stimsday2details/egg1.png,stimsday2details/newperson31.png,stimsday2details/couple1.png,stimsday2details/gift1.png,stimsday2details/new31.png,stimsday2details/cn1.png,stimsday2details/n1.png,stimsday2details/t1.png,stimsday2details/ct1.png,0,6,6,6,,,,,0,0,0,0,,,,,,,,,,,,,,,,,,,,,,,921.8199892099947,None,,,,,,,,,,,,,,,,,,,,,,,,,,,,,,,,,,,,,,,,,,,,,,,,,,,,,,,,,,,,,,,,,,,,,,,,,,,,,,,,,,,,,,,,,,,001,1,2019_Jun_12_0911,viewing,3.1.2,60.00261503550949,
north.png,stims/wedding-1.1a.mp4,stims/wedding-1.1b.mp4,stims/wedding-1.2a.mp4,stims/wedding-1.3a.mp4,stims/wedding-1.4a.mp4,stims/wedding-1.5.mp4,stimsday2details/newegg16.png,stimsday2details/egg1.png,stimsday2details/newperson31.png,stimsday2details/couple1.png,stimsday2details/gift1.png,stimsday2details/new31.png,stimsday2details/cn1.png,stimsday2details/n1.png,stimsday2details/t1.png,stimsday2details/ct1.png,0,6,6,6,,,,,,,,,0,0,0,0,,,,,,,,,,,,,,,,,,,,,2.8782018769998103,None,931.836599798,956.9695591899945,956.9695591899945,None,965.9694494799915,982.9692337629967,982.9692337629967,1005.9688964009983,1005.9688964009983,None,1029.968663045991,None,,,,,,,,,,,,,,,,,,,,,,,,,,,,,,,,,,,,,,,,,,,,,,,,,,,,,,,,,,,,,,,,,,,,,,,,,,,,,001,1,2019_Jun_12_0911,viewing,3.1.2,60.00261503550949,
north.png,stims/wedding-1.1a.mp4,stims/wedding-1.1b.mp4,stims/wedding-1.2a.mp4,stims/wedding-1.3a.mp4,stims/wedding-1.4a.mp4,stims/wedding-1.5.mp4,stimsday2details/newegg16.png,stimsday2details/egg1.png,stimsday2details/newperson31.png,stimsday2details/couple1.png,stimsday2details/gift1.png,stimsday2details/new31.png,stimsday2details/cn1.png,stimsday2details/n1.png,stimsday2details/t1.png,stimsday2details/ct1.png,0,6,6,6,,,,,,,,,,,,,0,0,0,0,,,,,,,,,,,,,,,,,,,,,,,,,,,,,,,None,None,None,None,None,None,None,None,None,None,None,None,None,None,None,None,None,None,None,,None,None,None,None,None,,,,,,,,,,,,,,,,,,,,,,,,,,,,,,,,,,,,,,,,,,,,,,,,,,,,001,1,2019_Jun_12_0911,viewing,3.1.2,60.00261503550949,
north.png,stims/wedding-1.1a.mp4,stims/wedding-1.1b.mp4,stims/wedding-1.2a.mp4,stims/wedding-1.3a.mp4,stims/wedding-1.4a.mp4,stims/wedding-1.5.mp4,stimsday2details/newegg16.png,stimsday2details/egg1.png,stimsday2details/newperson31.png,stimsday2details/couple1.png,stimsday2details/gift1.png,stimsday2details/new31.png,stimsday2details/cn1.png,stimsday2details/n1.png,stimsday2details/t1.png,stimsday2details/ct1.png,0,6,6,6,,,,,,,,,,,,,,,,,,,,,,,,,,,,,,,,,,,,,,,,,,,,,,,,,,,,,,,,,,,,,,,,,,,,,,,,3.64459992852062e-05,None,2,0.8188130150083452,1053.6517663529958,None,1053.6517663529958,None,1053.6517663529958,None,1055.6349578769878,None,2,0.9351516369933961,1055.6349578769878,None,1055.6349578769878,None,1057.6349392729899,None,1057.6349392729899,None,2,1.0350669019971974,1057.6349392729899,None,1,1.118587581004249,1059.6349698759877,None,1059.6349698759877,None,1059.6349698759877,None,1061.6349443999934,None,1061.6349443999934,None,1,0.8022080079972511,1061.6349443999934,None,1063.634915371993,None,1063.634915371993,None,1,1.3518689740012633,1063.634915371993,None,,001,1,2019_Jun_12_0911,viewing,3.1.2,60.00261503550949,
south.png,stims/wedding-2.1a.mp4,stims/wedding-2.1b.mp4,stims/wedding-2.2b.mp4,stims/wedding-2.3a.mp4,stims/wedding-2.4b.mp4,stims/wedding-2.5.mp4,stimsday2details/newpainting16.png,stimsday2details/painting2.png,stimsday2details/newperson32.png,stimsday2details/couple2.png,stimsday2details/gift2.png,stimsday2details/new32.png,stimsday2details/n2.png,stimsday2details/cn2.png,stimsday2details/t2.png,stimsday2details/ct2.png,0,7,7,7,0,0,0,0,,,,,,,,,,,,,,,,,,,,,,,,,1065.6348907859938,None,,,,,,,,,,,,,,,,,,,,,,,,,,,,,,,,,,,,,,,,,,,,,,,,,,,,,,,,,,,,,,,,,,,,,,,,,,,,,,,,,,,,,,,,,,,,,001,1,2019_Jun_12_0911,viewing,3.1.2,60.00261503550949,
south.png,stims/wedding-2.1a.mp4,stims/wedding-2.1b.mp4,stims/wedding-2.2b.mp4,stims/wedding-2.3a.mp4,stims/wedding-2.4b.mp4,stims/wedding-2.5.mp4,stimsday2details/newpainting16.png,stimsday2details/painting2.png,stimsday2details/newperson32.png,stimsday2details/couple2.png,stimsday2details/gift2.png,stimsday2details/new32.png,stimsday2details/n2.png,stimsday2details/cn2.png,stimsday2details/t2.png,stimsday2details/ct2.png,0,7,7,7,,,,,0,0,0,0,,,,,,,,,,,,,,,,,,,,,,,None,None,,,,,,,,,,,,,,,,,,,,,,,,,,,,,,,,,,,,,,,,,,,,,,,,,,,,,,,,,,,,,,,,,,,,,,,,,,,,,,,,,,,,,,,,,,,001,1,2019_Jun_12_0911,viewing,3.1.2,60.00261503550949,
south.png,stims/wedding-2.1a.mp4,stims/wedding-2.1b.mp4,stims/wedding-2.2b.mp4,stims/wedding-2.3a.mp4,stims/wedding-2.4b.mp4,stims/wedding-2.5.mp4,stimsday2details/newpainting16.png,stimsday2details/painting2.png,stimsday2details/newperson32.png,stimsday2details/couple2.png,stimsday2details/gift2.png,stimsday2details/new32.png,stimsday2details/n2.png,stimsday2details/cn2.png,stimsday2details/t2.png,stimsday2details/ct2.png,0,7,7,7,,,,,,,,,0,0,0,0,,,,,,,,,,,,,,,,,,,,,2.762269243001356,None,1075.7515036719997,None,1101.0011260789906,None,1110.0009549079987,None,1127.0007390699902,1150.0005793149903,1150.0005793149903,1174.0002279899927,1174.0002279899927,None,,,,,,,,,,,,,,,,,,,,,,,,,,,,,,,,,,,,,,,,,,,,,,,,,,,,,,,,,,,,,,,,,,,,,,,,,,,,,001,1,2019_Jun_12_0911,viewing,3.1.2,60.00261503550949,
south.png,stims/wedding-2.1a.mp4,stims/wedding-2.1b.mp4,stims/wedding-2.2b.mp4,stims/wedding-2.3a.mp4,stims/wedding-2.4b.mp4,stims/wedding-2.5.mp4,stimsday2details/newpainting16.png,stimsday2details/painting2.png,stimsday2details/newperson32.png,stimsday2details/couple2.png,stimsday2details/gift2.png,stimsday2details/new32.png,stimsday2details/n2.png,stimsday2details/cn2.png,stimsday2details/t2.png,stimsday2details/ct2.png,0,7,7,7,,,,,,,,,,,,,0,0,0,0,,,,,,,,,,,,,,,,,,,,,,,,,,,,,,,None,None,None,None,None,None,None,None,None,None,None,None,None,None,None,None,None,None,None,,None,None,None,None,None,,,,,,,,,,,,,,,,,,,,,,,,,,,,,,,,,,,,,,,,,,,,,,,,,,,,001,1,2019_Jun_12_0911,viewing,3.1.2,60.00261503550949,
south.png,stims/wedding-2.1a.mp4,stims/wedding-2.1b.mp4,stims/wedding-2.2b.mp4,stims/wedding-2.3a.mp4,stims/wedding-2.4b.mp4,stims/wedding-2.5.mp4,stimsday2details/newpainting16.png,stimsday2details/painting2.png,stimsday2details/newperson32.png,stimsday2details/couple2.png,stimsday2details/gift2.png,stimsday2details/new32.png,stimsday2details/n2.png,stimsday2details/cn2.png,stimsday2details/t2.png,stimsday2details/ct2.png,0,7,7,7,,,,,,,,,,,,,,,,,,,,,,,,,,,,,,,,,,,,,,,,,,,,,,,,,,,,,,,,,,,,,,,,,,,,,,,,3.68309993064031e-05,None,1,1.3023357880010735,1197.799938348995,None,1197.799938348995,None,1197.799938348995,None,1199.7832472869923,None,2,0.7184558609878877,1199.7832472869923,None,1199.7832472869923,None,1201.7832251359941,None,1201.7832251359941,None,2,1.13498286200047,1201.7832251359941,None,1,1.3519198569993023,1203.783198975987,None,1203.783198975987,None,1203.783198975987,None,1205.7831715770008,None,1205.7831715770008,None,1,0.701706631007255,1205.7831715770008,None,1207.7831440309965,None,1207.7831440309965,None,2,0.7185549970017746,1207.7831440309965,None,,001,1,2019_Jun_12_0911,viewing,3.1.2,60.00261503550949,
south.png,stims/wedding-17.1a.mp4,stims/wedding-17.1b.mp4,stims/wedding-17.2b.mp4,stims/wedding-17.3a.mp4,stims/wedding-17.4b.mp4,stims/wedding-17.5.mp4,stimsday2details/painting17.png,stimsday2details/newpainting17.png,stimsday2details/couple17.png,stimsday2details/newperson33.png,stimsday2details/gift17.png,stimsday2details/new33.png,stimsday2details/cn17.png,stimsday2details/n17.png,stimsday2details/t17.png,stimsday2details/ct17.png,0,8,8,8,0,0,0,0,,,,,,,,,,,,,,,,,,,,,,,,,1209.7832046369876,None,,,,,,,,,,,,,,,,,,,,,,,,,,,,,,,,,,,,,,,,,,,,,,,,,,,,,,,,,,,,,,,,,,,,,,,,,,,,,,,,,,,,,,,,,,,,,001,1,2019_Jun_12_0911,viewing,3.1.2,60.00261503550949,
south.png,stims/wedding-17.1a.mp4,stims/wedding-17.1b.mp4,stims/wedding-17.2b.mp4,stims/wedding-17.3a.mp4,stims/wedding-17.4b.mp4,stims/wedding-17.5.mp4,stimsday2details/painting17.png,stimsday2details/newpainting17.png,stimsday2details/couple17.png,stimsday2details/newperson33.png,stimsday2details/gift17.png,stimsday2details/new33.png,stimsday2details/cn17.png,stimsday2details/n17.png,stimsday2details/t17.png,stimsday2details/ct17.png,0,8,8,8,,,,,0,0,0,0,,,,,,,,,,,,,,,,,,,,,,,None,None,,,,,,,,,,,,,,,,,,,,,,,,,,,,,,,,,,,,,,,,,,,,,,,,,,,,,,,,,,,,,,,,,,,,,,,,,,,,,,,,,,,,,,,,,,,001,1,2019_Jun_12_0911,viewing,3.1.2,60.00261503550949,
south.png,stims/wedding-17.1a.mp4,stims/wedding-17.1b.mp4,stims/wedding-17.2b.mp4,stims/wedding-17.3a.mp4,stims/wedding-17.4b.mp4,stims/wedding-17.5.mp4,stimsday2details/painting17.png,stimsday2details/newpainting17.png,stimsday2details/couple17.png,stimsday2details/newperson33.png,stimsday2details/gift17.png,stimsday2details/new33.png,stimsday2details/cn17.png,stimsday2details/n17.png,stimsday2details/t17.png,stimsday2details/ct17.png,0,8,8,8,,,,,,,,,0,0,0,0,,,,,,,,,,,,,,,,,,,,,2.7772597209986998,None,1219.967431557001,None,1245.1993527659943,None,1254.199248083998,None,1271.199037170998,None,1294.1987548059988,None,1318.1984466859867,None,,,,,,,,,,,,,,,,,,,,,,,,,,,,,,,,,,,,,,,,,,,,,,,,,,,,,,,,,,,,,,,,,,,,,,,,,,,,,001,1,2019_Jun_12_0911,viewing,3.1.2,60.00261503550949,
south.png,stims/wedding-17.1a.mp4,stims/wedding-17.1b.mp4,stims/wedding-17.2b.mp4,stims/wedding-17.3a.mp4,stims/wedding-17.4b.mp4,stims/wedding-17.5.mp4,stimsday2details/painting17.png,stimsday2details/newpainting17.png,stimsday2details/couple17.png,stimsday2details/newperson33.png,stimsday2details/gift17.png,stimsday2details/new33.png,stimsday2details/cn17.png,stimsday2details/n17.png,stimsday2details/t17.png,stimsday2details/ct17.png,0,8,8,8,,,,,,,,,,,,,0,0,0,0,,,,,,,,,,,,,,,,,,,,,,,,,,,,,,,None,None,None,None,None,None,None,None,None,None,None,None,None,None,None,None,None,None,None,,None,None,None,None,None,,,,,,,,,,,,,,,,,,,,,,,,,,,,,,,,,,,,,,,,,,,,,,,,,,,,001,1,2019_Jun_12_0911,viewing,3.1.2,60.00261503550949,
south.png,stims/wedding-17.1a.mp4,stims/wedding-17.1b.mp4,stims/wedding-17.2b.mp4,stims/wedding-17.3a.mp4,stims/wedding-17.4b.mp4,stims/wedding-17.5.mp4,stimsday2details/painting17.png,stimsday2details/newpainting17.png,stimsday2details/couple17.png,stimsday2details/newperson33.png,stimsday2details/gift17.png,stimsday2details/new33.png,stimsday2details/cn17.png,stimsday2details/n17.png,stimsday2details/t17.png,stimsday2details/ct17.png,0,8,8,8,,,,,,,,,,,,,,,,,,,,,,,,,,,,,,,,,,,,,,,,,,,,,,,,,,,,,,,,,,,,,,,,,,,,,,,,2.6128007448278368e-05,None,None,,1342.2482764869928,None,1342.2482764869928,None,1342.2482764869928,None,1344.2314727379999,None,None,,1344.2314727379999,None,1344.2314727379999,None,1346.2314521160006,None,1346.2314521160006,None,None,,1346.2314521160006,None,1,1.1849938740051584,1348.2314660409902,None,1348.2314660409902,None,1348.2314660409902,None,1350.2313352659985,None,1350.2313352659985,None,1,0.7017185220029205,1350.2313352659985,None,1352.2313086319919,None,1352.2313086319919,None,2,0.9689196819963399,1352.2313086319919,None,,001,1,2019_Jun_12_0911,viewing,3.1.2,60.00261503550949,
north.png,stims/wedding-28.1a.mp4,stims/wedding-28.1b.mp4,stims/wedding-28.2b.mp4,stims/wedding-28.3b.mp4,stims/wedding-28.4b.mp4,stims/wedding-28.5.mp4,stimsday2details/painting28.png,stimsday2details/newpainting18.png,stimsday2details/couple28.png,stimsday2details/newperson34.png,stimsday2details/gift28.png,stimsday2details/new34.png,stimsday2details/n28.png,stimsday2details/cn28.png,stimsday2details/t28.png,stimsday2details/ct28.png,0,9,9,9,0,0,0,0,,,,,,,,,,,,,,,,,,,,,,,,,None,None,,,,,,,,,,,,,,,,,,,,,,,,,,,,,,,,,,,,,,,,,,,,,,,,,,,,,,,,,,,,,,,,,,,,,,,,,,,,,,,,,,,,,,,,,,,,,001,1,2019_Jun_12_0911,viewing,3.1.2,60.00261503550949,
north.png,stims/wedding-28.1a.mp4,stims/wedding-28.1b.mp4,stims/wedding-28.2b.mp4,stims/wedding-28.3b.mp4,stims/wedding-28.4b.mp4,stims/wedding-28.5.mp4,stimsday2details/painting28.png,stimsday2details/newpainting18.png,stimsday2details/couple28.png,stimsday2details/newperson34.png,stimsday2details/gift28.png,stimsday2details/new34.png,stimsday2details/n28.png,stimsday2details/cn28.png,stimsday2details/t28.png,stimsday2details/ct28.png,0,9,9,9,,,,,0,0,0,0,,,,,,,,,,,,,,,,,,,,,,,1354.4480107220006,None,,,,,,,,,,,,,,,,,,,,,,,,,,,,,,,,,,,,,,,,,,,,,,,,,,,,,,,,,,,,,,,,,,,,,,,,,,,,,,,,,,,,,,,,,,,001,1,2019_Jun_12_0911,viewing,3.1.2,60.00261503550949,
north.png,stims/wedding-28.1a.mp4,stims/wedding-28.1b.mp4,stims/wedding-28.2b.mp4,stims/wedding-28.3b.mp4,stims/wedding-28.4b.mp4,stims/wedding-28.5.mp4,stimsday2details/painting28.png,stimsday2details/newpainting18.png,stimsday2details/couple28.png,stimsday2details/newperson34.png,stimsday2details/gift28.png,stimsday2details/new34.png,stimsday2details/n28.png,stimsday2details/cn28.png,stimsday2details/t28.png,stimsday2details/ct28.png,0,9,9,9,,,,,,,,,0,0,0,0,,,,,,,,,,,,,,,,,,,,,2.6549665430065943,None,1364.3311706039967,1389.6642583369976,1389.6809076499922,None,1398.680808721998,None,1415.680593156998,1438.6636423369928,1438.6803147030005,None,1462.680018916988,None,,,,,,,,,,,,,,,,,,,,,,,,,,,,,,,,,,,,,,,,,,,,,,,,,,,,,,,,,,,,,,,,,,,,,,,,,,,,,001,1,2019_Jun_12_0911,viewing,3.1.2,60.00261503550949,
north.png,stims/wedding-28.1a.mp4,stims/wedding-28.1b.mp4,stims/wedding-28.2b.mp4,stims/wedding-28.3b.mp4,stims/wedding-28.4b.mp4,stims/wedding-28.5.mp4,stimsday2details/painting28.png,stimsday2details/newpainting18.png,stimsday2details/couple28.png,stimsday2details/newperson34.png,stimsday2details/gift28.png,stimsday2details/new34.png,stimsday2details/n28.png,stimsday2details/cn28.png,stimsday2details/t28.png,stimsday2details/ct28.png,0,9,9,9,,,,,,,,,,,,,0,0,0,0,,,,,,,,,,,,,,,,,,,,,,,,,,,,,,,None,None,None,None,None,None,None,None,None,None,None,None,None,None,None,None,None,None,None,,None,None,None,None,None,,,,,,,,,,,,,,,,,,,,,,,,,,,,,,,,,,,,,,,,,,,,,,,,,,,,001,1,2019_Jun_12_0911,viewing,3.1.2,60.00261503550949,
north.png,stims/wedding-28.1a.mp4,stims/wedding-28.1b.mp4,stims/wedding-28.2b.mp4,stims/wedding-28.3b.mp4,stims/wedding-28.4b.mp4,stims/wedding-28.5.mp4,stimsday2details/painting28.png,stimsday2details/newpainting18.png,stimsday2details/couple28.png,stimsday2details/newperson34.png,stimsday2details/gift28.png,stimsday2details/new34.png,stimsday2details/n28.png,stimsday2details/cn28.png,stimsday2details/t28.png,stimsday2details/ct28.png,0,9,9,9,,,,,,,,,,,,,,,,,,,,,,,,,,,,,,,,,,,,,,,,,,,,,,,,,,,,,,,,,,,,,,,,,,,,,,,,3.624300006777048e-05,None,1,0.8354771000012988,1486.9297797239997,None,1486.9297797239997,None,1486.9297797239997,None,1488.9130278449884,None,1,0.8686216149944812,1488.9130278449884,None,1488.9130278449884,None,1490.9130059529998,None,1490.9130059529998,None,1,0.818482374001178,1490.9130059529998,None,1,1.5518122000066796,1492.9129798969952,None,1492.9129798969952,None,1492.9129798969952,None,1494.9129436419898,None,1494.9129436419898,None,1,0.8519651989918202,1494.9129436419898,None,1496.912936748995,None,1496.912936748995,None,2,0.9015902550017927,1496.912936748995,None,,001,1,2019_Jun_12_0911,viewing,3.1.2,60.00261503550949,
north.png,stims/wedding-29.1a.mp4,stims/wedding-29.1b.mp4,stims/wedding-29.2a.mp4,stims/wedding-29.3a.mp4,stims/wedding-29.4a.mp4,stims/wedding-29.5.mp4,stimsday2details/egg29.png,stimsday2details/newegg17.png,stimsday2details/couple29.png,stimsday2details/newperson35.png,stimsday2details/gift29.png,stimsday2details/new35.png,stimsday2details/n29.png,stimsday2details/cn29.png,stimsday2details/t29.png,stimsday2details/ct29.png,0,10,10,10,0,0,0,0,,,,,,,,,,,,,,,,,,,,,,,,,None,None,,,,,,,,,,,,,,,,,,,,,,,,,,,,,,,,,,,,,,,,,,,,,,,,,,,,,,,,,,,,,,,,,,,,,,,,,,,,,,,,,,,,,,,,,,,,,001,1,2019_Jun_12_0911,viewing,3.1.2,60.00261503550949,
north.png,stims/wedding-29.1a.mp4,stims/wedding-29.1b.mp4,stims/wedding-29.2a.mp4,stims/wedding-29.3a.mp4,stims/wedding-29.4a.mp4,stims/wedding-29.5.mp4,stimsday2details/egg29.png,stimsday2details/newegg17.png,stimsday2details/couple29.png,stimsday2details/newperson35.png,stimsday2details/gift29.png,stimsday2details/new35.png,stimsday2details/n29.png,stimsday2details/cn29.png,stimsday2details/t29.png,stimsday2details/ct29.png,0,10,10,10,,,,,0,0,0,0,,,,,,,,,,,,,,,,,,,,,,,1499.1629121139995,None,,,,,,,,,,,,,,,,,,,,,,,,,,,,,,,,,,,,,,,,,,,,,,,,,,,,,,,,,,,,,,,,,,,,,,,,,,,,,,,,,,,,,,,,,,,001,1,2019_Jun_12_0911,viewing,3.1.2,60.00261503550949,
north.png,stims/wedding-29.1a.mp4,stims/wedding-29.1b.mp4,stims/wedding-29.2a.mp4,stims/wedding-29.3a.mp4,stims/wedding-29.4a.mp4,stims/wedding-29.5.mp4,stimsday2details/egg29.png,stimsday2details/newegg17.png,stimsday2details/couple29.png,stimsday2details/newperson35.png,stimsday2details/gift29.png,stimsday2details/new35.png,stimsday2details/n29.png,stimsday2details/cn29.png,stimsday2details/t29.png,stimsday2details/ct29.png,0,10,10,10,,,,,,,,,0,0,0,0,,,,,,,,,,,,,,,,,,,,,2.766591444000369,None,1509.1794535669906,None,1534.412466853988,None,1543.4125106829888,None,1560.4120909979974,None,1583.4118688439921,None,1607.4282402929966,None,,,,,,,,,,,,,,,,,,,,,,,,,,,,,,,,,,,,,,,,,,,,,,,,,,,,,,,,,,,,,,,,,,,,,,,,,,,,,001,1,2019_Jun_12_0911,viewing,3.1.2,60.00261503550949,
north.png,stims/wedding-29.1a.mp4,stims/wedding-29.1b.mp4,stims/wedding-29.2a.mp4,stims/wedding-29.3a.mp4,stims/wedding-29.4a.mp4,stims/wedding-29.5.mp4,stimsday2details/egg29.png,stimsday2details/newegg17.png,stimsday2details/couple29.png,stimsday2details/newperson35.png,stimsday2details/gift29.png,stimsday2details/new35.png,stimsday2details/n29.png,stimsday2details/cn29.png,stimsday2details/t29.png,stimsday2details/ct29.png,0,10,10,10,,,,,,,,,,,,,0,0,0,0,,,,,,,,,,,,,,,,,,,,,,,,,,,,,,,None,None,None,None,None,None,None,None,None,None,None,None,None,None,None,None,None,None,None,,None,None,None,None,None,,,,,,,,,,,,,,,,,,,,,,,,,,,,,,,,,,,,,,,,,,,,,,,,,,,,001,1,2019_Jun_12_0911,viewing,3.1.2,60.00261503550949,
north.png,stims/wedding-29.1a.mp4,stims/wedding-29.1b.mp4,stims/wedding-29.2a.mp4,stims/wedding-29.3a.mp4,stims/wedding-29.4a.mp4,stims/wedding-29.5.mp4,stimsday2details/egg29.png,stimsday2details/newegg17.png,stimsday2details/couple29.png,stimsday2details/newperson35.png,stimsday2details/gift29.png,stimsday2details/new35.png,stimsday2details/n29.png,stimsday2details/cn29.png,stimsday2details/t29.png,stimsday2details/ct29.png,0,10,10,10,,,,,,,,,,,,,,,,,,,,,,,,,,,,,,,,,,,,,,,,,,,,,,,,,,,,,,,,,,,,,,,,,,,,,,,,3.038400609511882e-05,None,1,0.6850508809875464,1631.0614442410006,None,1631.0614442410006,None,1631.0614442410006,None,1633.061275199987,None,1,0.8684918100043433,1633.061275199987,None,1633.061275199987,None,1635.0612502519944,None,1635.0612502519944,None,1,0.7185696590022417,1635.0612502519944,None,1,1.235305320005864,1637.0612170419918,None,1637.0612170419918,None,1637.0612170419918,None,1639.061187580999,None,1639.061187580999,None,1,0.8854270209994866,1639.061187580999,None,1641.061093264987,None,1641.061093264987,None,1,1.352059235010529,1641.061093264987,None,,001,1,2019_Jun_12_0911,viewing,3.1.2,60.00261503550949,
south.png,stims/wedding-38.1a.mp4,stims/wedding-38.1b.mp4,stims/wedding-38.2a.mp4,stims/wedding-38.3b.mp4,stims/wedding-38.4a.mp4,stims/wedding-38.5.mp4,stimsday2details/newegg18.png,stimsday2details/egg38.png,stimsday2details/newperson36.png,stimsday2details/couple38.png,stimsday2details/new36.png,stimsday2details/gift38.png,stimsday2details/cn38.png,stimsday2details/n38.png,stimsday2details/t38.png,stimsday2details/ct38.png,0,11,11,11,0,0,0,0,,,,,,,,,,,,,,,,,,,,,,,,,1643.0610768859915,None,,,,,,,,,,,,,,,,,,,,,,,,,,,,,,,,,,,,,,,,,,,,,,,,,,,,,,,,,,,,,,,,,,,,,,,,,,,,,,,,,,,,,,,,,,,,,001,1,2019_Jun_12_0911,viewing,3.1.2,60.00261503550949,
south.png,stims/wedding-38.1a.mp4,stims/wedding-38.1b.mp4,stims/wedding-38.2a.mp4,stims/wedding-38.3b.mp4,stims/wedding-38.4a.mp4,stims/wedding-38.5.mp4,stimsday2details/newegg18.png,stimsday2details/egg38.png,stimsday2details/newperson36.png,stimsday2details/couple38.png,stimsday2details/new36.png,stimsday2details/gift38.png,stimsday2details/cn38.png,stimsday2details/n38.png,stimsday2details/t38.png,stimsday2details/ct38.png,0,11,11,11,,,,,0,0,0,0,,,,,,,,,,,,,,,,,,,,,,,None,None,,,,,,,,,,,,,,,,,,,,,,,,,,,,,,,,,,,,,,,,,,,,,,,,,,,,,,,,,,,,,,,,,,,,,,,,,,,,,,,,,,,,,,,,,,,001,1,2019_Jun_12_0911,viewing,3.1.2,60.00261503550949,
south.png,stims/wedding-38.1a.mp4,stims/wedding-38.1b.mp4,stims/wedding-38.2a.mp4,stims/wedding-38.3b.mp4,stims/wedding-38.4a.mp4,stims/wedding-38.5.mp4,stimsday2details/newegg18.png,stimsday2details/egg38.png,stimsday2details/newperson36.png,stimsday2details/couple38.png,stimsday2details/new36.png,stimsday2details/gift38.png,stimsday2details/cn38.png,stimsday2details/n38.png,stimsday2details/t38.png,stimsday2details/ct38.png,0,11,11,11,,,,,,,,,0,0,0,0,,,,,,,,,,,,,,,,,,,,,None,None,None,None,None,None,None,None,None,None,None,None,None,None,,,,,,,,,,,,,,,,,,,,,,,,,,,,,,,,,,,,,,,,,,,,,,,,,,,,,,,,,,,,,,,,,,,,,,,,,,,,,001,1,2019_Jun_12_0911,viewing,3.1.2,60.00261503550949,
south.png,stims/wedding-38.1a.mp4,stims/wedding-38.1b.mp4,stims/wedding-38.2a.mp4,stims/wedding-38.3b.mp4,stims/wedding-38.4a.mp4,stims/wedding-38.5.mp4,stimsday2details/newegg18.png,stimsday2details/egg38.png,stimsday2details/newperson36.png,stimsday2details/couple38.png,stimsday2details/new36.png,stimsday2details/gift38.png,stimsday2details/cn38.png,stimsday2details/n38.png,stimsday2details/t38.png,stimsday2details/ct38.png,0,11,11,11,,,,,,,,,,,,,0,0,0,0,,,,,,,,,,,,,,,,,,,,,,,,,,,,,,,2.827277038988541,None,1656.5276985169912,1681.7106579519896,1681.7106579519896,None,1690.710549327996,1707.7103422389919,1707.7103422389919,1711.7102938229946,1711.7102938229946,1734.709932318001,1734.709932318001,1738.709963581001,1738.709963581001,None,1762.709665892995,None,['1'],[2.618390014002216],1706.7103630889906,1711.7102938229946,['1'],1733.7266966530005,1738.709963581001,,,,,,,,,,,,,,,,,,,,,,,,,,,,,,,,,,,,,,,,,,,,,,,,,,,[2.418607956991764],001,1,2019_Jun_12_0911,viewing,3.1.2,60.00261503550949,
south.png,stims/wedding-38.1a.mp4,stims/wedding-38.1b.mp4,stims/wedding-38.2a.mp4,stims/wedding-38.3b.mp4,stims/wedding-38.4a.mp4,stims/wedding-38.5.mp4,stimsday2details/newegg18.png,stimsday2details/egg38.png,stimsday2details/newperson36.png,stimsday2details/couple38.png,stimsday2details/new36.png,stimsday2details/gift38.png,stimsday2details/cn38.png,stimsday2details/n38.png,stimsday2details/t38.png,stimsday2details/ct38.png,0,11,11,11,,,,,,,,,,,,,,,,,,,,,,,,,,,,,,,,,,,,,,,,,,,,,,,,,,,,,,,,,,,,,,,,,,,,,,,,3.508999361656606e-05,None,2,1.234907749996637,1783.6594692009967,None,1783.6594692009967,None,1783.6594692009967,None,1785.6427140609885,None,2,0.9183566680003423,1785.6427140609885,None,1785.6427140609885,None,1787.6426889099967,None,1787.6426889099967,None,2,0.9519094949937426,1787.6426889099967,None,1,1.1683575839997502,1789.6426696499984,None,1789.6426696499984,None,1789.6426696499984,None,1791.6426511459867,None,1791.6426511459867,None,2,0.751739097002428,1791.6426511459867,None,1793.6426194889937,None,1793.6426194889937,None,2,1.235249636010849,1793.6426194889937,None,,001,1,2019_Jun_12_0911,viewing,3.1.2,60.00261503550949,
