northOrSouth,stimFile1a,stimFile1b,stimFile2,stimFile3,stimFile4,stimFile5,Qeggpainting1,Qeggpainting2,Qcharacter1,Qcharacter2,Qgift1,Qgift2,Qname1,Qname2,Qtheme1,Qtheme2,trials.thisRepN,trials.thisTrialN,trials.thisN,trials.thisIndex,South.thisRepN,South.thisTrialN,South.thisN,South.thisIndex,North.thisRepN,North.thisTrialN,North.thisN,North.thisIndex,noQtrials.thisRepN,noQtrials.thisTrialN,noQtrials.thisN,noQtrials.thisIndex,Qtrials.thisRepN,Qtrials.thisTrialN,Qtrials.thisN,Qtrials.thisIndex,text.started,text.stopped,prep_trigger.keys,prep_trigger.rt,prep_trigger.started,prep_trigger.stopped,waiting.started,waiting.stopped,trigger.keys,trigger.rt,trigger.started,trigger.stopped,southCueImage.started,southCueImage.stopped,northCueImage.started,northCueImage.stopped,trialNoQs.started,trialNoQs.stopped,vid1a.started,vid1a.stopped,vid1b.started,vid1b.stopped,vid2.started,vid2.stopped,vid3.started,vid3.stopped,vid4.started,vid4.stopped,vid5.started,vid5.stopped,ISI2.started,ISI2.stopped,vid1a_q.started,vid1a_q.stopped,vid1b_q.started,vid1b_q.stopped,vid2_q.started,vid2_q.stopped,l2q.started,l2q.stopped,vid3_q.started,vid3_q.stopped,l3q.started,l3q.stopped,vid4_q.started,vid4_q.stopped,vid5_q.started,vid5_q.stopped,key_resp_2.keys,key_resp_2.rt,key_resp_2.started,key_resp_2.stopped,key_resp_3.keys,key_resp_3.rt,key_resp_3.started,key_resp_3.stopped,ISI7.started,ISI7.stopped,nameQresp.keys,nameQresp.rt,nameQresp.started,nameQresp.stopped,nameQ1.started,nameQ1.stopped,nameQ2.started,nameQ2.stopped,eggPainting1.started,eggPainting1.stopped,eggPaintingQresp.keys,eggPaintingQresp.rt,eggPaintingQresp.started,eggPaintingQresp.stopped,eggPainting2.started,eggPainting2.stopped,character1.started,character1.stopped,character2.started,character2.stopped,Qcharacter.keys,Qcharacter.rt,Qcharacter.started,Qcharacter.stopped,themeQresp.keys,themeQresp.rt,themeQresp.started,themeQresp.stopped,themeQ1.started,themeQ1.stopped,themeQ2.started,themeQ2.stopped,gift1.started,gift1.stopped,gift2.started,gift2.stopped,giftQresp.keys,giftQresp.rt,giftQresp.started,giftQresp.stopped,northorsouth1.started,northorsouth1.stopped,northorsouth2.started,northorsouth2.stopped,northOrSouthQ.keys,northOrSouthQ.rt,northOrSouthQ.started,northOrSouthQ.stopped,session,participant,date,expName,psychopyVersion,frameRate,
,,,,,,,,,,,,,,,,,,,,,,,,,,,,,,,,,,,,,9.746555174700916,None,g,0.37117130495607853,9.746555174700916,None,,,,,,,,,,,,,,,,,,,,,,,,,,,,,,,,,,,,,,,,,,,,,,,,,,,,,,,,,,,,,,,,,,,,,,,,,,,,,,,,,,,,,,,,,,,,,,,,,,,,,001,36,2020_Jan_10_1437,viewing,3.1.2,60.00295113385597,
,,,,,,,,,,,,,,,,,,,,,,,,,,,,,,,,,,,,,,,,,,,10.129956994205713,None,equal,28.535301910713315,10.129956994205713,None,,,,,,,,,,,,,,,,,,,,,,,,,,,,,,,,,,,,,,,,,,,,,,,,,,,,,,,,,,,,,,,,,,,,,,,,,,,,,,,,,,,,,,,,,,,,,,,001,36,2020_Jan_10_1437,viewing,3.1.2,60.00295113385597,
south.png,stims/wedding-2.1a.mp4,stims/wedding-2.1b.mp4,stims/wedding-2.2b.mp4,stims/wedding-2.3a.mp4,stims/wedding-2.4b.mp4,stims/wedding-2.5.mp4,stimsday2details/newpainting13.png,stimsday2details/painting2.png,stimsday2details/couple2.png,stimsday2details/newperson25.png,stimsday2details/new25.png,stimsday2details/gift2.png,stimsday2details/n2.png,stimsday2details/cn2.png,stimsday2details/t2.png,stimsday2details/ct2.png,0,0,0,0,0,0,0,0,,,,,,,,,,,,,,,,,,,,,,,,,38.71292073559016,None,,,,,,,,,,,,,,,,,,,,,,,,,,,,,,,,,,,,,,,,,,,,,,,,,,,,,,,,,,,,,,,,,,,,,,,,,,,,,,,,,,,,,,,,,,,,,001,36,2020_Jan_10_1437,viewing,3.1.2,60.00295113385597,
south.png,stims/wedding-2.1a.mp4,stims/wedding-2.1b.mp4,stims/wedding-2.2b.mp4,stims/wedding-2.3a.mp4,stims/wedding-2.4b.mp4,stims/wedding-2.5.mp4,stimsday2details/newpainting13.png,stimsday2details/painting2.png,stimsday2details/couple2.png,stimsday2details/newperson25.png,stimsday2details/new25.png,stimsday2details/gift2.png,stimsday2details/n2.png,stimsday2details/cn2.png,stimsday2details/t2.png,stimsday2details/ct2.png,0,0,0,0,,,,,0,0,0,0,,,,,,,,,,,,,,,,,,,,,,,None,None,,,,,,,,,,,,,,,,,,,,,,,,,,,,,,,,,,,,,,,,,,,,,,,,,,,,,,,,,,,,,,,,,,,,,,,,,,,,,,,,,,,,,,,,,,,001,36,2020_Jan_10_1437,viewing,3.1.2,60.00295113385597,
south.png,stims/wedding-2.1a.mp4,stims/wedding-2.1b.mp4,stims/wedding-2.2b.mp4,stims/wedding-2.3a.mp4,stims/wedding-2.4b.mp4,stims/wedding-2.5.mp4,stimsday2details/newpainting13.png,stimsday2details/painting2.png,stimsday2details/couple2.png,stimsday2details/newperson25.png,stimsday2details/new25.png,stimsday2details/gift2.png,stimsday2details/n2.png,stimsday2details/cn2.png,stimsday2details/t2.png,stimsday2details/ct2.png,0,0,0,0,,,,,,,,,0,0,0,0,,,,,,,,,,,,,,,,,,,,,None,None,None,None,None,None,None,None,None,None,None,None,None,None,,,,,,,,,,,,,,,,,,,,,,,,,,,,,,,,,,,,,,,,,,,,,,,,,,,,,,,,,,,,,,,,,,,,,,,,,,,,,001,36,2020_Jan_10_1437,viewing,3.1.2,60.00295113385597,
south.png,stims/wedding-2.1a.mp4,stims/wedding-2.1b.mp4,stims/wedding-2.2b.mp4,stims/wedding-2.3a.mp4,stims/wedding-2.4b.mp4,stims/wedding-2.5.mp4,stimsday2details/newpainting13.png,stimsday2details/painting2.png,stimsday2details/couple2.png,stimsday2details/newperson25.png,stimsday2details/new25.png,stimsday2details/gift2.png,stimsday2details/n2.png,stimsday2details/cn2.png,stimsday2details/t2.png,stimsday2details/ct2.png,0,0,0,0,,,,,,,,,,,,,0,0,0,0,,,,,,,,,,,,,,,,,,,,,,,,,,,,,,,2.693330575712025,None,51.48241486400366,None,76.7958342609927,None,85.79566625319421,None,102.7954965448007,106.77867830265313,106.79537783097476,129.77840485982597,129.7951375208795,133.77841182984412,133.79508055839688,157.7781234169379,157.79479745961726,None,['2'],[3.1355756213888526],101.81214160192758,106.77867830265313,['1'],[2.952166173607111],128.79516370873898,133.77841182984412,,,,,,,,,,,,,,,,,,,,,,,,,,,,,,,,,,,,,,,,,,,,,,,,,,,001,36,2020_Jan_10_1437,viewing,3.1.2,60.00295113385597,
south.png,stims/wedding-2.1a.mp4,stims/wedding-2.1b.mp4,stims/wedding-2.2b.mp4,stims/wedding-2.3a.mp4,stims/wedding-2.4b.mp4,stims/wedding-2.5.mp4,stimsday2details/newpainting13.png,stimsday2details/painting2.png,stimsday2details/couple2.png,stimsday2details/newperson25.png,stimsday2details/new25.png,stimsday2details/gift2.png,stimsday2details/n2.png,stimsday2details/cn2.png,stimsday2details/t2.png,stimsday2details/ct2.png,0,0,0,0,,,,,,,,,,,,,,,,,,,,,,,,,,,,,,,,,,,,,,,,,,,,,,,,,,,,,,,,,,,,,,,,,,,,,,,,,2.0858831703662872e-05,None,1,0.6858952715992928,178.51120764296502,None,178.51120764296502,None,178.51120764296502,None,180.51119223888963,None,2,0.768734771758318,180.51119223888963,None,180.51119223888963,None,182.51116328686476,None,182.51116328686476,None,1,0.7688119458034635,182.51116328686476,None,1,1.0857226699590683,184.51113481260836,None,184.51113481260836,None,184.51113481260836,None,186.5111117530614,None,186.5111117530614,None,2,0.7856136234477162,186.5111117530614,None,188.51108238380402,None,188.51108238380402,None,2,1.3187405820935965,188.51108238380402,None,001,36,2020_Jan_10_1437,viewing,3.1.2,60.00295113385597,
north.png,stims/wedding-17.1a.mp4,stims/wedding-17.1b.mp4,stims/wedding-17.2b.mp4,stims/wedding-17.3b.mp4,stims/wedding-17.4b.mp4,stims/wedding-17.5.mp4,stimsday2details/painting17.png,stimsday2details/newpainting14.png,stimsday2details/newperson26.png,stimsday2details/couple17.png,stimsday2details/new26.png,stimsday2details/gift17.png,stimsday2details/cn17.png,stimsday2details/n17.png,stimsday2details/t17.png,stimsday2details/ct17.png,0,1,1,1,0,0,0,0,,,,,,,,,,,,,,,,,,,,,,,,,None,None,,,,,,,,,,,,,,,,,,,,,,,,,,,,,,,,,,,,,,,,,,,,,,,,,,,,,,,,,,,,,,,,,,,,,,,,,,,,,,,,,,,,,,,,,,,,,001,36,2020_Jan_10_1437,viewing,3.1.2,60.00295113385597,
north.png,stims/wedding-17.1a.mp4,stims/wedding-17.1b.mp4,stims/wedding-17.2b.mp4,stims/wedding-17.3b.mp4,stims/wedding-17.4b.mp4,stims/wedding-17.5.mp4,stimsday2details/painting17.png,stimsday2details/newpainting14.png,stimsday2details/newperson26.png,stimsday2details/couple17.png,stimsday2details/new26.png,stimsday2details/gift17.png,stimsday2details/cn17.png,stimsday2details/n17.png,stimsday2details/t17.png,stimsday2details/ct17.png,0,1,1,1,,,,,0,0,0,0,,,,,,,,,,,,,,,,,,,,,,,190.5610590269789,None,,,,,,,,,,,,,,,,,,,,,,,,,,,,,,,,,,,,,,,,,,,,,,,,,,,,,,,,,,,,,,,,,,,,,,,,,,,,,,,,,,,,,,,,,,,001,36,2020_Jan_10_1437,viewing,3.1.2,60.00295113385597,
north.png,stims/wedding-17.1a.mp4,stims/wedding-17.1b.mp4,stims/wedding-17.2b.mp4,stims/wedding-17.3b.mp4,stims/wedding-17.4b.mp4,stims/wedding-17.5.mp4,stimsday2details/painting17.png,stimsday2details/newpainting14.png,stimsday2details/newperson26.png,stimsday2details/couple17.png,stimsday2details/new26.png,stimsday2details/gift17.png,stimsday2details/cn17.png,stimsday2details/n17.png,stimsday2details/t17.png,stimsday2details/ct17.png,0,1,1,1,,,,,,,,,0,0,0,0,,,,,,,,,,,,,,,,,,,,,3.0015792064368725,None,200.6141105266288,None,225.62730081565678,None,234.6271911561489,None,251.6269860221073,274.6100370362401,274.6267060190439,None,298.6264189966023,None,,,,,,,,,,,,,,,,,,,,,,,,,,,,,,,,,,,,,,,,,,,,,,,,,,,,,,,,,,,,,,,,,,,,,,,,,,,,,001,36,2020_Jan_10_1437,viewing,3.1.2,60.00295113385597,
north.png,stims/wedding-17.1a.mp4,stims/wedding-17.1b.mp4,stims/wedding-17.2b.mp4,stims/wedding-17.3b.mp4,stims/wedding-17.4b.mp4,stims/wedding-17.5.mp4,stimsday2details/painting17.png,stimsday2details/newpainting14.png,stimsday2details/newperson26.png,stimsday2details/couple17.png,stimsday2details/new26.png,stimsday2details/gift17.png,stimsday2details/cn17.png,stimsday2details/n17.png,stimsday2details/t17.png,stimsday2details/ct17.png,0,1,1,1,,,,,,,,,,,,,0,0,0,0,,,,,,,,,,,,,,,,,,,,,,,,,,,,,,,None,None,None,None,None,None,None,None,None,None,None,None,None,None,None,None,None,None,None,,None,None,None,,None,None,,,,,,,,,,,,,,,,,,,,,,,,,,,,,,,,,,,,,,,,,,,,,,,,,,,001,36,2020_Jan_10_1437,viewing,3.1.2,60.00295113385597,
north.png,stims/wedding-17.1a.mp4,stims/wedding-17.1b.mp4,stims/wedding-17.2b.mp4,stims/wedding-17.3b.mp4,stims/wedding-17.4b.mp4,stims/wedding-17.5.mp4,stimsday2details/painting17.png,stimsday2details/newpainting14.png,stimsday2details/newperson26.png,stimsday2details/couple17.png,stimsday2details/new26.png,stimsday2details/gift17.png,stimsday2details/cn17.png,stimsday2details/n17.png,stimsday2details/t17.png,stimsday2details/ct17.png,0,1,1,1,,,,,,,,,,,,,,,,,,,,,,,,,,,,,,,,,,,,,,,,,,,,,,,,,,,,,,,,,,,,,,,,,,,,,,,,,2.733711153268814e-05,None,2,0.9023492289707065,322.17618784308434,None,322.17618784308434,None,322.17618784308434,None,324.1761052766815,None,1,0.6689500529319048,324.1761052766815,None,324.1761052766815,None,326.17608386743814,None,326.17608386743814,None,2,0.8184206495061517,326.17608386743814,None,1,0.86883679125458,328.17606382258236,None,328.17606382258236,None,328.17606382258236,None,330.17602499295026,None,330.17602499295026,None,2,0.7538623195141554,330.17602499295026,None,332.17600874975324,None,332.17600874975324,None,1,1.1370499106124043,332.17600874975324,None,001,36,2020_Jan_10_1437,viewing,3.1.2,60.00295113385597,
north.png,stims/wedding-1.1a.mp4,stims/wedding-1.1b.mp4,stims/wedding-1.2b.mp4,stims/wedding-1.3b.mp4,stims/wedding-1.4b.mp4,stims/wedding-1.5.mp4,stimsday2details/painting1.png,stimsday2details/newpainting15.png,stimsday2details/newperson27.png,stimsday2details/couple1.png,stimsday2details/new27.png,stimsday2details/gift1.png,stimsday2details/cn1.png,stimsday2details/n1.png,stimsday2details/ct1.png,stimsday2details/t1.png,0,2,2,2,0,0,0,0,,,,,,,,,,,,,,,,,,,,,,,,,None,None,,,,,,,,,,,,,,,,,,,,,,,,,,,,,,,,,,,,,,,,,,,,,,,,,,,,,,,,,,,,,,,,,,,,,,,,,,,,,,,,,,,,,,,,,,,,,001,36,2020_Jan_10_1437,viewing,3.1.2,60.00295113385597,
north.png,stims/wedding-1.1a.mp4,stims/wedding-1.1b.mp4,stims/wedding-1.2b.mp4,stims/wedding-1.3b.mp4,stims/wedding-1.4b.mp4,stims/wedding-1.5.mp4,stimsday2details/painting1.png,stimsday2details/newpainting15.png,stimsday2details/newperson27.png,stimsday2details/couple1.png,stimsday2details/new27.png,stimsday2details/gift1.png,stimsday2details/cn1.png,stimsday2details/n1.png,stimsday2details/ct1.png,stimsday2details/t1.png,0,2,2,2,,,,,0,0,0,0,,,,,,,,,,,,,,,,,,,,,,,334.2426573978737,None,,,,,,,,,,,,,,,,,,,,,,,,,,,,,,,,,,,,,,,,,,,,,,,,,,,,,,,,,,,,,,,,,,,,,,,,,,,,,,,,,,,,,,,,,,,001,36,2020_Jan_10_1437,viewing,3.1.2,60.00295113385597,
north.png,stims/wedding-1.1a.mp4,stims/wedding-1.1b.mp4,stims/wedding-1.2b.mp4,stims/wedding-1.3b.mp4,stims/wedding-1.4b.mp4,stims/wedding-1.5.mp4,stimsday2details/painting1.png,stimsday2details/newpainting15.png,stimsday2details/newperson27.png,stimsday2details/couple1.png,stimsday2details/new27.png,stimsday2details/gift1.png,stimsday2details/cn1.png,stimsday2details/n1.png,stimsday2details/ct1.png,stimsday2details/t1.png,0,2,2,2,,,,,,,,,0,0,0,0,,,,,,,,,,,,,,,,,,,,,2.8769467221572995,None,344.19736992008984,369.30883100256324,369.325593280606,None,378.32543996721506,None,395.3252332545817,418.3082855436951,418.3249523155391,442.32466519158334,442.32466519158334,None,,,,,,,,,,,,,,,,,,,,,,,,,,,,,,,,,,,,,,,,,,,,,,,,,,,,,,,,,,,,,,,,,,,,,,,,,,,,,001,36,2020_Jan_10_1437,viewing,3.1.2,60.00295113385597,
north.png,stims/wedding-1.1a.mp4,stims/wedding-1.1b.mp4,stims/wedding-1.2b.mp4,stims/wedding-1.3b.mp4,stims/wedding-1.4b.mp4,stims/wedding-1.5.mp4,stimsday2details/painting1.png,stimsday2details/newpainting15.png,stimsday2details/newperson27.png,stimsday2details/couple1.png,stimsday2details/new27.png,stimsday2details/gift1.png,stimsday2details/cn1.png,stimsday2details/n1.png,stimsday2details/ct1.png,stimsday2details/t1.png,0,2,2,2,,,,,,,,,,,,,0,0,0,0,,,,,,,,,,,,,,,,,,,,,,,,,,,,,,,None,None,None,None,None,None,None,None,None,None,None,None,None,None,None,None,None,None,None,,None,None,None,,None,None,,,,,,,,,,,,,,,,,,,,,,,,,,,,,,,,,,,,,,,,,,,,,,,,,,,001,36,2020_Jan_10_1437,viewing,3.1.2,60.00295113385597,
north.png,stims/wedding-1.1a.mp4,stims/wedding-1.1b.mp4,stims/wedding-1.2b.mp4,stims/wedding-1.3b.mp4,stims/wedding-1.4b.mp4,stims/wedding-1.5.mp4,stimsday2details/painting1.png,stimsday2details/newpainting15.png,stimsday2details/newperson27.png,stimsday2details/couple1.png,stimsday2details/new27.png,stimsday2details/gift1.png,stimsday2details/cn1.png,stimsday2details/n1.png,stimsday2details/ct1.png,stimsday2details/t1.png,0,2,2,2,,,,,,,,,,,,,,,,,,,,,,,,,,,,,,,,,,,,,,,,,,,,,,,,,,,,,,,,,,,,,,,,,,,,,,,,,3.366544842720032e-05,None,2,0.7531212782487273,465.87437707092613,None,465.87437707092613,None,465.87437707092613,None,467.8576739579439,None,1,0.7535339752212167,467.8576739579439,None,467.8576739579439,None,469.857598438859,None,469.857598438859,None,2,0.8036788096651435,469.857598438859,None,2,1.3368918867781758,471.8575729345903,None,471.8575729345903,None,471.8575729345903,None,473.8575512012467,None,473.8575512012467,None,2,0.833704998716712,473.8575512012467,None,475.85757851134986,None,475.85757851134986,None,1,0.6868901373818517,475.85757851134986,None,001,36,2020_Jan_10_1437,viewing,3.1.2,60.00295113385597,
south.png,stims/wedding-6.1a.mp4,stims/wedding-6.1b.mp4,stims/wedding-6.2a.mp4,stims/wedding-6.3b.mp4,stims/wedding-6.4a.mp4,stims/wedding-6.5.mp4,stimsday2details/newegg13.png,stimsday2details/egg6.png,stimsday2details/couple6.png,stimsday2details/newperson28.png,stimsday2details/gift6.png,stimsday2details/new28.png,stimsday2details/cn6.png,stimsday2details/n6.png,stimsday2details/ct6.png,stimsday2details/t6.png,0,3,3,3,0,0,0,0,,,,,,,,,,,,,,,,,,,,,,,,,477.8575609996915,None,,,,,,,,,,,,,,,,,,,,,,,,,,,,,,,,,,,,,,,,,,,,,,,,,,,,,,,,,,,,,,,,,,,,,,,,,,,,,,,,,,,,,,,,,,,,,001,36,2020_Jan_10_1437,viewing,3.1.2,60.00295113385597,
south.png,stims/wedding-6.1a.mp4,stims/wedding-6.1b.mp4,stims/wedding-6.2a.mp4,stims/wedding-6.3b.mp4,stims/wedding-6.4a.mp4,stims/wedding-6.5.mp4,stimsday2details/newegg13.png,stimsday2details/egg6.png,stimsday2details/couple6.png,stimsday2details/newperson28.png,stimsday2details/gift6.png,stimsday2details/new28.png,stimsday2details/cn6.png,stimsday2details/n6.png,stimsday2details/ct6.png,stimsday2details/t6.png,0,3,3,3,,,,,0,0,0,0,,,,,,,,,,,,,,,,,,,,,,,None,None,,,,,,,,,,,,,,,,,,,,,,,,,,,,,,,,,,,,,,,,,,,,,,,,,,,,,,,,,,,,,,,,,,,,,,,,,,,,,,,,,,,,,,,,,,,001,36,2020_Jan_10_1437,viewing,3.1.2,60.00295113385597,
south.png,stims/wedding-6.1a.mp4,stims/wedding-6.1b.mp4,stims/wedding-6.2a.mp4,stims/wedding-6.3b.mp4,stims/wedding-6.4a.mp4,stims/wedding-6.5.mp4,stimsday2details/newegg13.png,stimsday2details/egg6.png,stimsday2details/couple6.png,stimsday2details/newperson28.png,stimsday2details/gift6.png,stimsday2details/new28.png,stimsday2details/cn6.png,stimsday2details/n6.png,stimsday2details/ct6.png,stimsday2details/t6.png,0,3,3,3,,,,,,,,,0,0,0,0,,,,,,,,,,,,,,,,,,,,,2.9921907698735595,None,488.0409093843773,513.0404579471797,513.0571312634274,None,522.0570148201659,539.0400902675465,539.0568194733933,562.0398628255352,562.0565285068005,586.0395666239783,586.05624098517,None,,,,,,,,,,,,,,,,,,,,,,,,,,,,,,,,,,,,,,,,,,,,,,,,,,,,,,,,,,,,,,,,,,,,,,,,,,,,,001,36,2020_Jan_10_1437,viewing,3.1.2,60.00295113385597,
south.png,stims/wedding-6.1a.mp4,stims/wedding-6.1b.mp4,stims/wedding-6.2a.mp4,stims/wedding-6.3b.mp4,stims/wedding-6.4a.mp4,stims/wedding-6.5.mp4,stimsday2details/newegg13.png,stimsday2details/egg6.png,stimsday2details/couple6.png,stimsday2details/newperson28.png,stimsday2details/gift6.png,stimsday2details/new28.png,stimsday2details/cn6.png,stimsday2details/n6.png,stimsday2details/ct6.png,stimsday2details/t6.png,0,3,3,3,,,,,,,,,,,,,0,0,0,0,,,,,,,,,,,,,,,,,,,,,,,,,,,,,,,None,None,None,None,None,None,None,None,None,None,None,None,None,None,None,None,None,None,None,,None,None,None,,None,None,,,,,,,,,,,,,,,,,,,,,,,,,,,,,,,,,,,,,,,,,,,,,,,,,,,001,36,2020_Jan_10_1437,viewing,3.1.2,60.00295113385597,
south.png,stims/wedding-6.1a.mp4,stims/wedding-6.1b.mp4,stims/wedding-6.2a.mp4,stims/wedding-6.3b.mp4,stims/wedding-6.4a.mp4,stims/wedding-6.5.mp4,stimsday2details/newegg13.png,stimsday2details/egg6.png,stimsday2details/couple6.png,stimsday2details/newperson28.png,stimsday2details/gift6.png,stimsday2details/new28.png,stimsday2details/cn6.png,stimsday2details/n6.png,stimsday2details/ct6.png,stimsday2details/t6.png,0,3,3,3,,,,,,,,,,,,,,,,,,,,,,,,,,,,,,,,,,,,,,,,,,,,,,,,,,,,,,,,,,,,,,,,,,,,,,,,,3.359280526638031e-05,None,2,0.8368742531165481,609.906017486006,None,609.906017486006,None,609.906017486006,None,611.905922550708,None,2,0.8502761432901025,611.905922550708,None,611.905922550708,None,613.9058390390128,None,613.9058390390128,None,1,0.8371598031371832,613.9058390390128,None,2,1.1202993439510465,615.9058504933491,None,615.9058504933491,None,615.9058504933491,None,617.9058528039604,None,617.9058528039604,None,1,0.7870122250169516,617.9058528039604,None,619.9057967942208,None,619.9057967942208,None,1,1.1335807153955102,619.9057967942208,None,001,36,2020_Jan_10_1437,viewing,3.1.2,60.00295113385597,
south.png,stims/wedding-23.1a.mp4,stims/wedding-23.1b.mp4,stims/wedding-23.2b.mp4,stims/wedding-23.3a.mp4,stims/wedding-23.4b.mp4,stims/wedding-23.5.mp4,stimsday2details/painting23.png,stimsday2details/newpainting16.png,stimsday2details/couple23.png,stimsday2details/newperson29.png,stimsday2details/new29.png,stimsday2details/gift23.png,stimsday2details/cn23.png,stimsday2details/n23.png,stimsday2details/t23.png,stimsday2details/ct23.png,0,4,4,4,0,0,0,0,,,,,,,,,,,,,,,,,,,,,,,,,621.9057816788554,None,,,,,,,,,,,,,,,,,,,,,,,,,,,,,,,,,,,,,,,,,,,,,,,,,,,,,,,,,,,,,,,,,,,,,,,,,,,,,,,,,,,,,,,,,,,,,001,36,2020_Jan_10_1437,viewing,3.1.2,60.00295113385597,
south.png,stims/wedding-23.1a.mp4,stims/wedding-23.1b.mp4,stims/wedding-23.2b.mp4,stims/wedding-23.3a.mp4,stims/wedding-23.4b.mp4,stims/wedding-23.5.mp4,stimsday2details/painting23.png,stimsday2details/newpainting16.png,stimsday2details/couple23.png,stimsday2details/newperson29.png,stimsday2details/new29.png,stimsday2details/gift23.png,stimsday2details/cn23.png,stimsday2details/n23.png,stimsday2details/t23.png,stimsday2details/ct23.png,0,4,4,4,,,,,0,0,0,0,,,,,,,,,,,,,,,,,,,,,,,None,None,,,,,,,,,,,,,,,,,,,,,,,,,,,,,,,,,,,,,,,,,,,,,,,,,,,,,,,,,,,,,,,,,,,,,,,,,,,,,,,,,,,,,,,,,,,001,36,2020_Jan_10_1437,viewing,3.1.2,60.00295113385597,
south.png,stims/wedding-23.1a.mp4,stims/wedding-23.1b.mp4,stims/wedding-23.2b.mp4,stims/wedding-23.3a.mp4,stims/wedding-23.4b.mp4,stims/wedding-23.5.mp4,stimsday2details/painting23.png,stimsday2details/newpainting16.png,stimsday2details/couple23.png,stimsday2details/newperson29.png,stimsday2details/new29.png,stimsday2details/gift23.png,stimsday2details/cn23.png,stimsday2details/n23.png,stimsday2details/t23.png,stimsday2details/ct23.png,0,4,4,4,,,,,,,,,0,0,0,0,,,,,,,,,,,,,,,,,,,,,2.9282090915367007,None,632.055740875192,657.1387031646445,657.1387031646445,None,666.1385947205126,None,683.1384792318568,706.138258960098,706.138258960098,None,730.1378093687817,None,,,,,,,,,,,,,,,,,,,,,,,,,,,,,,,,,,,,,,,,,,,,,,,,,,,,,,,,,,,,,,,,,,,,,,,,,,,,,001,36,2020_Jan_10_1437,viewing,3.1.2,60.00295113385597,
south.png,stims/wedding-23.1a.mp4,stims/wedding-23.1b.mp4,stims/wedding-23.2b.mp4,stims/wedding-23.3a.mp4,stims/wedding-23.4b.mp4,stims/wedding-23.5.mp4,stimsday2details/painting23.png,stimsday2details/newpainting16.png,stimsday2details/couple23.png,stimsday2details/newperson29.png,stimsday2details/new29.png,stimsday2details/gift23.png,stimsday2details/cn23.png,stimsday2details/n23.png,stimsday2details/t23.png,stimsday2details/ct23.png,0,4,4,4,,,,,,,,,,,,,0,0,0,0,,,,,,,,,,,,,,,,,,,,,,,,,,,,,,,None,None,None,None,None,None,None,None,None,None,None,None,None,None,None,None,None,None,None,,None,None,None,,None,None,,,,,,,,,,,,,,,,,,,,,,,,,,,,,,,,,,,,,,,,,,,,,,,,,,,001,36,2020_Jan_10_1437,viewing,3.1.2,60.00295113385597,
south.png,stims/wedding-23.1a.mp4,stims/wedding-23.1b.mp4,stims/wedding-23.2b.mp4,stims/wedding-23.3a.mp4,stims/wedding-23.4b.mp4,stims/wedding-23.5.mp4,stimsday2details/painting23.png,stimsday2details/newpainting16.png,stimsday2details/couple23.png,stimsday2details/newperson29.png,stimsday2details/new29.png,stimsday2details/gift23.png,stimsday2details/cn23.png,stimsday2details/n23.png,stimsday2details/t23.png,stimsday2details/ct23.png,0,4,4,4,,,,,,,,,,,,,,,,,,,,,,,,,,,,,,,,,,,,,,,,,,,,,,,,,,,,,,,,,,,,,,,,,,,,,,,,,3.3925287425518036e-05,None,2,1.037332153879106,754.3709053071216,None,754.3709053071216,None,754.3709053071216,None,756.3707545027137,None,1,1.4368489840999246,756.3707545027137,None,756.3707545027137,None,758.3708042120561,None,758.3708042120561,None,1,0.7705308506265283,758.3708042120561,None,2,1.803395215421915,760.3707712134346,None,760.3707712134346,None,760.3707712134346,None,762.3707437710837,None,762.3707437710837,None,2,0.9865633929148316,762.3707437710837,None,764.3707245849073,None,764.3707245849073,None,2,1.2703091520816088,764.3707245849073,None,001,36,2020_Jan_10_1437,viewing,3.1.2,60.00295113385597,
north.png,stims/wedding-19.1a.mp4,stims/wedding-19.1b.mp4,stims/wedding-19.2b.mp4,stims/wedding-19.3b.mp4,stims/wedding-19.4b.mp4,stims/wedding-19.5.mp4,stimsday2details/newpainting17.png,stimsday2details/painting19.png,stimsday2details/newperson30.png,stimsday2details/couple19.png,stimsday2details/gift19.png,stimsday2details/new30.png,stimsday2details/n19.png,stimsday2details/cn19.png,stimsday2details/t19.png,stimsday2details/ct19.png,0,5,5,5,0,0,0,0,,,,,,,,,,,,,,,,,,,,,,,,,None,None,,,,,,,,,,,,,,,,,,,,,,,,,,,,,,,,,,,,,,,,,,,,,,,,,,,,,,,,,,,,,,,,,,,,,,,,,,,,,,,,,,,,,,,,,,,,,001,36,2020_Jan_10_1437,viewing,3.1.2,60.00295113385597,
north.png,stims/wedding-19.1a.mp4,stims/wedding-19.1b.mp4,stims/wedding-19.2b.mp4,stims/wedding-19.3b.mp4,stims/wedding-19.4b.mp4,stims/wedding-19.5.mp4,stimsday2details/newpainting17.png,stimsday2details/painting19.png,stimsday2details/newperson30.png,stimsday2details/couple19.png,stimsday2details/gift19.png,stimsday2details/new30.png,stimsday2details/n19.png,stimsday2details/cn19.png,stimsday2details/t19.png,stimsday2details/ct19.png,0,5,5,5,,,,,0,0,0,0,,,,,,,,,,,,,,,,,,,,,,,766.5040368530899,None,,,,,,,,,,,,,,,,,,,,,,,,,,,,,,,,,,,,,,,,,,,,,,,,,,,,,,,,,,,,,,,,,,,,,,,,,,,,,,,,,,,,,,,,,,,001,36,2020_Jan_10_1437,viewing,3.1.2,60.00295113385597,
north.png,stims/wedding-19.1a.mp4,stims/wedding-19.1b.mp4,stims/wedding-19.2b.mp4,stims/wedding-19.3b.mp4,stims/wedding-19.4b.mp4,stims/wedding-19.5.mp4,stimsday2details/newpainting17.png,stimsday2details/painting19.png,stimsday2details/newperson30.png,stimsday2details/couple19.png,stimsday2details/gift19.png,stimsday2details/new30.png,stimsday2details/n19.png,stimsday2details/cn19.png,stimsday2details/t19.png,stimsday2details/ct19.png,0,5,5,5,,,,,,,,,0,0,0,0,,,,,,,,,,,,,,,,,,,,,3.0356514118611813,None,776.6872149147093,801.6369308279827,801.6535867946222,None,810.6535395709798,827.6365962699056,827.6532877376303,850.6363298278302,850.6529986234382,None,874.6527044931427,None,,,,,,,,,,,,,,,,,,,,,,,,,,,,,,,,,,,,,,,,,,,,,,,,,,,,,,,,,,,,,,,,,,,,,,,,,,,,,001,36,2020_Jan_10_1437,viewing,3.1.2,60.00295113385597,
north.png,stims/wedding-19.1a.mp4,stims/wedding-19.1b.mp4,stims/wedding-19.2b.mp4,stims/wedding-19.3b.mp4,stims/wedding-19.4b.mp4,stims/wedding-19.5.mp4,stimsday2details/newpainting17.png,stimsday2details/painting19.png,stimsday2details/newperson30.png,stimsday2details/couple19.png,stimsday2details/gift19.png,stimsday2details/new30.png,stimsday2details/n19.png,stimsday2details/cn19.png,stimsday2details/t19.png,stimsday2details/ct19.png,0,5,5,5,,,,,,,,,,,,,0,0,0,0,,,,,,,,,,,,,,,,,,,,,,,,,,,,,,,None,None,None,None,None,None,None,None,None,None,None,None,None,None,None,None,None,None,None,,None,None,None,,None,None,,,,,,,,,,,,,,,,,,,,,,,,,,,,,,,,,,,,,,,,,,,,,,,,,,,001,36,2020_Jan_10_1437,viewing,3.1.2,60.00295113385597,
north.png,stims/wedding-19.1a.mp4,stims/wedding-19.1b.mp4,stims/wedding-19.2b.mp4,stims/wedding-19.3b.mp4,stims/wedding-19.4b.mp4,stims/wedding-19.5.mp4,stimsday2details/newpainting17.png,stimsday2details/painting19.png,stimsday2details/newperson30.png,stimsday2details/couple19.png,stimsday2details/gift19.png,stimsday2details/new30.png,stimsday2details/n19.png,stimsday2details/cn19.png,stimsday2details/t19.png,stimsday2details/ct19.png,0,5,5,5,,,,,,,,,,,,,,,,,,,,,,,,,,,,,,,,,,,,,,,,,,,,,,,,,,,,,,,,,,,,,,,,,,,,,,,,,4.320777952671051e-05,None,1,1.1032341318205,898.9357332941145,None,898.9357332941145,None,898.9357332941145,None,900.9357135463506,None,2,0.9867853578180075,900.9357135463506,None,900.9357135463506,None,902.9356903890148,None,902.9356903890148,None,2,0.8704277593642473,902.9356903890148,None,1,1.053585335612297,904.9356637047604,None,904.9356637047604,None,904.9356637047604,None,906.935635369271,None,906.935635369271,None,1,0.9365833895280957,906.935635369271,None,908.9356080656871,None,908.9356080656871,None,1,1.0537022724747658,908.9356080656871,None,001,36,2020_Jan_10_1437,viewing,3.1.2,60.00295113385597,
north.png,stims/wedding-28.1a.mp4,stims/wedding-28.1b.mp4,stims/wedding-28.2a.mp4,stims/wedding-28.3a.mp4,stims/wedding-28.4a.mp4,stims/wedding-28.5.mp4,stimsday2details/newegg14.png,stimsday2details/egg28.png,stimsday2details/couple28.png,stimsday2details/newperson31.png,stimsday2details/gift28.png,stimsday2details/new31.png,stimsday2details/cn28.png,stimsday2details/n28.png,stimsday2details/t28.png,stimsday2details/ct28.png,0,6,6,6,0,0,0,0,,,,,,,,,,,,,,,,,,,,,,,,,None,None,,,,,,,,,,,,,,,,,,,,,,,,,,,,,,,,,,,,,,,,,,,,,,,,,,,,,,,,,,,,,,,,,,,,,,,,,,,,,,,,,,,,,,,,,,,,,001,36,2020_Jan_10_1437,viewing,3.1.2,60.00295113385597,
north.png,stims/wedding-28.1a.mp4,stims/wedding-28.1b.mp4,stims/wedding-28.2a.mp4,stims/wedding-28.3a.mp4,stims/wedding-28.4a.mp4,stims/wedding-28.5.mp4,stimsday2details/newegg14.png,stimsday2details/egg28.png,stimsday2details/couple28.png,stimsday2details/newperson31.png,stimsday2details/gift28.png,stimsday2details/new31.png,stimsday2details/cn28.png,stimsday2details/n28.png,stimsday2details/t28.png,stimsday2details/ct28.png,0,6,6,6,,,,,0,0,0,0,,,,,,,,,,,,,,,,,,,,,,,911.0856182547286,None,,,,,,,,,,,,,,,,,,,,,,,,,,,,,,,,,,,,,,,,,,,,,,,,,,,,,,,,,,,,,,,,,,,,,,,,,,,,,,,,,,,,,,,,,,,001,36,2020_Jan_10_1437,viewing,3.1.2,60.00295113385597,
north.png,stims/wedding-28.1a.mp4,stims/wedding-28.1b.mp4,stims/wedding-28.2a.mp4,stims/wedding-28.3a.mp4,stims/wedding-28.4a.mp4,stims/wedding-28.5.mp4,stimsday2details/newegg14.png,stimsday2details/egg28.png,stimsday2details/couple28.png,stimsday2details/newperson31.png,stimsday2details/gift28.png,stimsday2details/new31.png,stimsday2details/cn28.png,stimsday2details/n28.png,stimsday2details/t28.png,stimsday2details/ct28.png,0,6,6,6,,,,,,,,,0,0,0,0,,,,,,,,,,,,,,,,,,,,,3.0920920418575406,None,921.5879877088591,946.485152091831,946.5018208473921,None,955.501647874713,972.4848555503413,972.5014988034964,995.4845480741933,995.5012599155307,1019.4842657372355,1019.5009235125035,None,,,,,,,,,,,,,,,,,,,,,,,,,,,,,,,,,,,,,,,,,,,,,,,,,,,,,,,,,,,,,,,,,,,,,,,,,,,,,001,36,2020_Jan_10_1437,viewing,3.1.2,60.00295113385597,
north.png,stims/wedding-28.1a.mp4,stims/wedding-28.1b.mp4,stims/wedding-28.2a.mp4,stims/wedding-28.3a.mp4,stims/wedding-28.4a.mp4,stims/wedding-28.5.mp4,stimsday2details/newegg14.png,stimsday2details/egg28.png,stimsday2details/couple28.png,stimsday2details/newperson31.png,stimsday2details/gift28.png,stimsday2details/new31.png,stimsday2details/cn28.png,stimsday2details/n28.png,stimsday2details/t28.png,stimsday2details/ct28.png,0,6,6,6,,,,,,,,,,,,,0,0,0,0,,,,,,,,,,,,,,,,,,,,,,,,,,,,,,,None,None,None,None,None,None,None,None,None,None,None,None,None,None,None,None,None,None,None,,None,None,None,,None,None,,,,,,,,,,,,,,,,,,,,,,,,,,,,,,,,,,,,,,,,,,,,,,,,,,,001,36,2020_Jan_10_1437,viewing,3.1.2,60.00295113385597,
north.png,stims/wedding-28.1a.mp4,stims/wedding-28.1b.mp4,stims/wedding-28.2a.mp4,stims/wedding-28.3a.mp4,stims/wedding-28.4a.mp4,stims/wedding-28.5.mp4,stimsday2details/newegg14.png,stimsday2details/egg28.png,stimsday2details/couple28.png,stimsday2details/newperson31.png,stimsday2details/gift28.png,stimsday2details/new31.png,stimsday2details/cn28.png,stimsday2details/n28.png,stimsday2details/t28.png,stimsday2details/ct28.png,0,6,6,6,,,,,,,,,,,,,,,,,,,,,,,,,,,,,,,,,,,,,,,,,,,,,,,,,,,,,,,,,,,,,,,,,,,,,,,,,3.095809370279312e-05,None,2,0.9200899191200733,1043.817296619527,None,1043.817296619527,None,1043.817296619527,None,1045.8005930986255,None,2,0.7367606274783611,1045.8005930986255,None,1045.8005930986255,None,1047.8005767157301,None,1047.8005767157301,None,1,0.8696957277134061,1047.8005767157301,None,1,1.003376642242074,1049.8005541767925,None,1049.8005541767925,None,1049.8005541767925,None,1051.8005295172334,None,1051.8005295172334,None,1,0.9033195720985532,1051.8005295172334,None,1053.8005213066936,None,1053.8005213066936,None,2,1.4366030720993876,1053.8005213066936,None,001,36,2020_Jan_10_1437,viewing,3.1.2,60.00295113385597,
south.png,stims/wedding-22.1a.mp4,stims/wedding-22.1b.mp4,stims/wedding-22.2a.mp4,stims/wedding-22.3b.mp4,stims/wedding-22.4a.mp4,stims/wedding-22.5.mp4,stimsday2details/egg22.png,stimsday2details/newegg15.png,stimsday2details/newperson32.png,stimsday2details/couple22.png,stimsday2details/gift22.png,stimsday2details/new32.png,stimsday2details/cn22.png,stimsday2details/n22.png,stimsday2details/t22.png,stimsday2details/ct22.png,0,7,7,7,0,0,0,0,,,,,,,,,,,,,,,,,,,,,,,,,1055.800483662635,None,,,,,,,,,,,,,,,,,,,,,,,,,,,,,,,,,,,,,,,,,,,,,,,,,,,,,,,,,,,,,,,,,,,,,,,,,,,,,,,,,,,,,,,,,,,,,001,36,2020_Jan_10_1437,viewing,3.1.2,60.00295113385597,
south.png,stims/wedding-22.1a.mp4,stims/wedding-22.1b.mp4,stims/wedding-22.2a.mp4,stims/wedding-22.3b.mp4,stims/wedding-22.4a.mp4,stims/wedding-22.5.mp4,stimsday2details/egg22.png,stimsday2details/newegg15.png,stimsday2details/newperson32.png,stimsday2details/couple22.png,stimsday2details/gift22.png,stimsday2details/new32.png,stimsday2details/cn22.png,stimsday2details/n22.png,stimsday2details/t22.png,stimsday2details/ct22.png,0,7,7,7,,,,,0,0,0,0,,,,,,,,,,,,,,,,,,,,,,,None,None,,,,,,,,,,,,,,,,,,,,,,,,,,,,,,,,,,,,,,,,,,,,,,,,,,,,,,,,,,,,,,,,,,,,,,,,,,,,,,,,,,,,,,,,,,,001,36,2020_Jan_10_1437,viewing,3.1.2,60.00295113385597,
south.png,stims/wedding-22.1a.mp4,stims/wedding-22.1b.mp4,stims/wedding-22.2a.mp4,stims/wedding-22.3b.mp4,stims/wedding-22.4a.mp4,stims/wedding-22.5.mp4,stimsday2details/egg22.png,stimsday2details/newegg15.png,stimsday2details/newperson32.png,stimsday2details/couple22.png,stimsday2details/gift22.png,stimsday2details/new32.png,stimsday2details/cn22.png,stimsday2details/n22.png,stimsday2details/t22.png,stimsday2details/ct22.png,0,7,7,7,,,,,,,,,0,0,0,0,,,,,,,,,,,,,,,,,,,,,3.283627552911639,None,1066.4337426880375,1091.1500105699524,1091.1668390957639,None,1100.166601142846,1117.1497247265652,1117.1663858341053,1140.149443958886,1140.1661121705547,1164.1491416255012,1164.1658132951707,None,,,,,,,,,,,,,,,,,,,,,,,,,,,,,,,,,,,,,,,,,,,,,,,,,,,,,,,,,,,,,,,,,,,,,,,,,,,,,001,36,2020_Jan_10_1437,viewing,3.1.2,60.00295113385597,
south.png,stims/wedding-22.1a.mp4,stims/wedding-22.1b.mp4,stims/wedding-22.2a.mp4,stims/wedding-22.3b.mp4,stims/wedding-22.4a.mp4,stims/wedding-22.5.mp4,stimsday2details/egg22.png,stimsday2details/newegg15.png,stimsday2details/newperson32.png,stimsday2details/couple22.png,stimsday2details/gift22.png,stimsday2details/new32.png,stimsday2details/cn22.png,stimsday2details/n22.png,stimsday2details/t22.png,stimsday2details/ct22.png,0,7,7,7,,,,,,,,,,,,,0,0,0,0,,,,,,,,,,,,,,,,,,,,,,,,,,,,,,,None,None,None,None,None,None,None,None,None,None,None,None,None,None,None,None,None,None,None,,None,None,None,,None,None,,,,,,,,,,,,,,,,,,,,,,,,,,,,,,,,,,,,,,,,,,,,,,,,,,,001,36,2020_Jan_10_1437,viewing,3.1.2,60.00295113385597,
south.png,stims/wedding-22.1a.mp4,stims/wedding-22.1b.mp4,stims/wedding-22.2a.mp4,stims/wedding-22.3b.mp4,stims/wedding-22.4a.mp4,stims/wedding-22.5.mp4,stimsday2details/egg22.png,stimsday2details/newegg15.png,stimsday2details/newperson32.png,stimsday2details/couple22.png,stimsday2details/gift22.png,stimsday2details/new32.png,stimsday2details/cn22.png,stimsday2details/n22.png,stimsday2details/t22.png,stimsday2details/ct22.png,0,7,7,7,,,,,,,,,,,,,,,,,,,,,,,,,,,,,,,,,,,,,,,,,,,,,,,,,,,,,,,,,,,,,,,,,,,,,,,,,4.224386066198349e-05,None,2,0.8868420915678144,1188.0489240810275,None,1188.0489240810275,None,1188.0489240810275,None,1190.0488183274865,None,1,1.0368326362222433,1190.0488183274865,None,1190.0488183274865,None,1192.0488004935905,None,1192.0488004935905,None,2,0.8701998544856906,1192.0488004935905,None,1,1.1861932361498475,1194.0487767197192,None,1194.0487767197192,None,1194.0487767197192,None,1196.04875594005,None,1196.04875594005,None,1,1.0032678646966815,1196.04875594005,None,1198.0487268678844,None,1198.0487268678844,None,2,1.587220387533307,1198.0487268678844,None,001,36,2020_Jan_10_1437,viewing,3.1.2,60.00295113385597,
south.png,stims/wedding-34.1a.mp4,stims/wedding-34.1b.mp4,stims/wedding-34.2b.mp4,stims/wedding-34.3a.mp4,stims/wedding-34.4b.mp4,stims/wedding-34.5.mp4,stimsday2details/painting34.png,stimsday2details/newpainting18.png,stimsday2details/couple34.png,stimsday2details/newperson33.png,stimsday2details/gift34.png,stimsday2details/new33.png,stimsday2details/cn34.png,stimsday2details/n34.png,stimsday2details/ct34.png,stimsday2details/t34.png,0,8,8,8,0,0,0,0,,,,,,,,,,,,,,,,,,,,,,,,,1200.0487122759223,None,,,,,,,,,,,,,,,,,,,,,,,,,,,,,,,,,,,,,,,,,,,,,,,,,,,,,,,,,,,,,,,,,,,,,,,,,,,,,,,,,,,,,,,,,,,,,001,36,2020_Jan_10_1437,viewing,3.1.2,60.00295113385597,
south.png,stims/wedding-34.1a.mp4,stims/wedding-34.1b.mp4,stims/wedding-34.2b.mp4,stims/wedding-34.3a.mp4,stims/wedding-34.4b.mp4,stims/wedding-34.5.mp4,stimsday2details/painting34.png,stimsday2details/newpainting18.png,stimsday2details/couple34.png,stimsday2details/newperson33.png,stimsday2details/gift34.png,stimsday2details/new33.png,stimsday2details/cn34.png,stimsday2details/n34.png,stimsday2details/ct34.png,stimsday2details/t34.png,0,8,8,8,,,,,0,0,0,0,,,,,,,,,,,,,,,,,,,,,,,None,None,,,,,,,,,,,,,,,,,,,,,,,,,,,,,,,,,,,,,,,,,,,,,,,,,,,,,,,,,,,,,,,,,,,,,,,,,,,,,,,,,,,,,,,,,,,001,36,2020_Jan_10_1437,viewing,3.1.2,60.00295113385597,
south.png,stims/wedding-34.1a.mp4,stims/wedding-34.1b.mp4,stims/wedding-34.2b.mp4,stims/wedding-34.3a.mp4,stims/wedding-34.4b.mp4,stims/wedding-34.5.mp4,stimsday2details/painting34.png,stimsday2details/newpainting18.png,stimsday2details/couple34.png,stimsday2details/newperson33.png,stimsday2details/gift34.png,stimsday2details/new33.png,stimsday2details/cn34.png,stimsday2details/n34.png,stimsday2details/ct34.png,stimsday2details/t34.png,0,8,8,8,,,,,,,,,0,0,0,0,,,,,,,,,,,,,,,,,,,,,3.021734475158155,None,1210.4653208944947,1235.4482658784837,1235.4649393893778,1244.448156522587,1244.4648638730869,None,1261.4646243853495,None,1284.4643385494128,None,1308.464039974846,None,,,,,,,,,,,,,,,,,,,,,,,,,,,,,,,,,,,,,,,,,,,,,,,,,,,,,,,,,,,,,,,,,,,,,,,,,,,,,001,36,2020_Jan_10_1437,viewing,3.1.2,60.00295113385597,
south.png,stims/wedding-34.1a.mp4,stims/wedding-34.1b.mp4,stims/wedding-34.2b.mp4,stims/wedding-34.3a.mp4,stims/wedding-34.4b.mp4,stims/wedding-34.5.mp4,stimsday2details/painting34.png,stimsday2details/newpainting18.png,stimsday2details/couple34.png,stimsday2details/newperson33.png,stimsday2details/gift34.png,stimsday2details/new33.png,stimsday2details/cn34.png,stimsday2details/n34.png,stimsday2details/ct34.png,stimsday2details/t34.png,0,8,8,8,,,,,,,,,,,,,0,0,0,0,,,,,,,,,,,,,,,,,,,,,,,,,,,,,,,None,None,None,None,None,None,None,None,None,None,None,None,None,None,None,None,None,None,None,,None,None,None,,None,None,,,,,,,,,,,,,,,,,,,,,,,,,,,,,,,,,,,,,,,,,,,,,,,,,,,001,36,2020_Jan_10_1437,viewing,3.1.2,60.00295113385597,
south.png,stims/wedding-34.1a.mp4,stims/wedding-34.1b.mp4,stims/wedding-34.2b.mp4,stims/wedding-34.3a.mp4,stims/wedding-34.4b.mp4,stims/wedding-34.5.mp4,stimsday2details/painting34.png,stimsday2details/newpainting18.png,stimsday2details/couple34.png,stimsday2details/newperson33.png,stimsday2details/gift34.png,stimsday2details/new33.png,stimsday2details/cn34.png,stimsday2details/n34.png,stimsday2details/ct34.png,stimsday2details/t34.png,0,8,8,8,,,,,,,,,,,,,,,,,,,,,,,,,,,,,,,,,,,,,,,,,,,,,,,,,,,,,,,,,,,,,,,,,,,,,,,,,3.761518746614456e-05,None,2,1.1002824427559972,1332.047082522884,None,1332.047082522884,None,1332.047082522884,None,1334.0470091560856,None,1,1.4537815507501364,1334.0470091560856,None,1334.0470091560856,None,1336.0470681935549,None,1336.0470681935549,None,1,1.186805428005755,1336.0470681935549,None,2,1.152756324969232,1338.0470636514947,None,1338.0470636514947,None,1338.0470636514947,None,1340.0470036854967,None,1340.0470036854967,None,1,0.98721803445369,1340.0470036854967,None,1342.0470790127292,None,1342.0470790127292,None,2,1.0537113780155778,1342.0470790127292,None,001,36,2020_Jan_10_1437,viewing,3.1.2,60.00295113385597,
north.png,stims/wedding-38.1a.mp4,stims/wedding-38.1b.mp4,stims/wedding-38.2a.mp4,stims/wedding-38.3a.mp4,stims/wedding-38.4a.mp4,stims/wedding-38.5.mp4,stimsday2details/egg38.png,stimsday2details/newegg16.png,stimsday2details/couple38.png,stimsday2details/newperson34.png,stimsday2details/new34.png,stimsday2details/gift38.png,stimsday2details/cn38.png,stimsday2details/n38.png,stimsday2details/ct38.png,stimsday2details/t38.png,0,9,9,9,0,0,0,0,,,,,,,,,,,,,,,,,,,,,,,,,None,None,,,,,,,,,,,,,,,,,,,,,,,,,,,,,,,,,,,,,,,,,,,,,,,,,,,,,,,,,,,,,,,,,,,,,,,,,,,,,,,,,,,,,,,,,,,,,001,36,2020_Jan_10_1437,viewing,3.1.2,60.00295113385597,
north.png,stims/wedding-38.1a.mp4,stims/wedding-38.1b.mp4,stims/wedding-38.2a.mp4,stims/wedding-38.3a.mp4,stims/wedding-38.4a.mp4,stims/wedding-38.5.mp4,stimsday2details/egg38.png,stimsday2details/newegg16.png,stimsday2details/couple38.png,stimsday2details/newperson34.png,stimsday2details/new34.png,stimsday2details/gift38.png,stimsday2details/cn38.png,stimsday2details/n38.png,stimsday2details/ct38.png,stimsday2details/t38.png,0,9,9,9,,,,,0,0,0,0,,,,,,,,,,,,,,,,,,,,,,,1344.4136000247672,None,,,,,,,,,,,,,,,,,,,,,,,,,,,,,,,,,,,,,,,,,,,,,,,,,,,,,,,,,,,,,,,,,,,,,,,,,,,,,,,,,,,,,,,,,,,001,36,2020_Jan_10_1437,viewing,3.1.2,60.00295113385597,
north.png,stims/wedding-38.1a.mp4,stims/wedding-38.1b.mp4,stims/wedding-38.2a.mp4,stims/wedding-38.3a.mp4,stims/wedding-38.4a.mp4,stims/wedding-38.5.mp4,stimsday2details/egg38.png,stimsday2details/newegg16.png,stimsday2details/couple38.png,stimsday2details/newperson34.png,stimsday2details/new34.png,stimsday2details/gift38.png,stimsday2details/cn38.png,stimsday2details/n38.png,stimsday2details/ct38.png,stimsday2details/t38.png,0,9,9,9,,,,,,,,,0,0,0,0,,,,,,,,,,,,,,,,,,,,,3.0281994296237826,None,1354.684977917932,1379.6464965706691,1379.6632416890934,None,1388.6630487777293,1405.6461759861559,1405.6628414839506,1428.645829216577,1428.662486624904,None,1452.6622686572373,None,,,,,,,,,,,,,,,,,,,,,,,,,,,,,,,,,,,,,,,,,,,,,,,,,,,,,,,,,,,,,,,,,,,,,,,,,,,,,001,36,2020_Jan_10_1437,viewing,3.1.2,60.00295113385597,
north.png,stims/wedding-38.1a.mp4,stims/wedding-38.1b.mp4,stims/wedding-38.2a.mp4,stims/wedding-38.3a.mp4,stims/wedding-38.4a.mp4,stims/wedding-38.5.mp4,stimsday2details/egg38.png,stimsday2details/newegg16.png,stimsday2details/couple38.png,stimsday2details/newperson34.png,stimsday2details/new34.png,stimsday2details/gift38.png,stimsday2details/cn38.png,stimsday2details/n38.png,stimsday2details/ct38.png,stimsday2details/t38.png,0,9,9,9,,,,,,,,,,,,,0,0,0,0,,,,,,,,,,,,,,,,,,,,,,,,,,,,,,,None,None,None,None,None,None,None,None,None,None,None,None,None,None,None,None,None,None,None,,None,None,None,,None,None,,,,,,,,,,,,,,,,,,,,,,,,,,,,,,,,,,,,,,,,,,,,,,,,,,,001,36,2020_Jan_10_1437,viewing,3.1.2,60.00295113385597,
north.png,stims/wedding-38.1a.mp4,stims/wedding-38.1b.mp4,stims/wedding-38.2a.mp4,stims/wedding-38.3a.mp4,stims/wedding-38.4a.mp4,stims/wedding-38.5.mp4,stimsday2details/egg38.png,stimsday2details/newegg16.png,stimsday2details/couple38.png,stimsday2details/newperson34.png,stimsday2details/new34.png,stimsday2details/gift38.png,stimsday2details/cn38.png,stimsday2details/n38.png,stimsday2details/ct38.png,stimsday2details/t38.png,0,9,9,9,,,,,,,,,,,,,,,,,,,,,,,,,,,,,,,,,,,,,,,,,,,,,,,,,,,,,,,,,,,,,,,,,,,,,,,,,3.6065466701984406e-05,None,2,1.1355854263529181,1476.7120402036235,None,1476.7120402036235,None,1476.7120402036235,None,1478.7119461959228,None,1,0.8524171197786927,1478.7119461959228,None,1478.7119461959228,None,1480.7119196150452,None,1480.7119196150452,None,1,0.9683800209313631,1480.7119196150452,None,2,1.06856307387352,1482.711902569048,None,1482.711902569048,None,1482.711902569048,None,1484.7118706088513,None,1484.7118706088513,None,2,0.9356248397380114,1484.7118706088513,None,1486.711851656437,None,1486.711851656437,None,1,1.419018235988915,1486.711851656437,None,001,36,2020_Jan_10_1437,viewing,3.1.2,60.00295113385597,
north.png,stims/wedding-29.1a.mp4,stims/wedding-29.1b.mp4,stims/wedding-29.2a.mp4,stims/wedding-29.3a.mp4,stims/wedding-29.4a.mp4,stims/wedding-29.5.mp4,stimsday2details/egg29.png,stimsday2details/newegg17.png,stimsday2details/couple29.png,stimsday2details/newperson35.png,stimsday2details/new35.png,stimsday2details/gift29.png,stimsday2details/n29.png,stimsday2details/cn29.png,stimsday2details/ct29.png,stimsday2details/t29.png,0,10,10,10,0,0,0,0,,,,,,,,,,,,,,,,,,,,,,,,,None,None,,,,,,,,,,,,,,,,,,,,,,,,,,,,,,,,,,,,,,,,,,,,,,,,,,,,,,,,,,,,,,,,,,,,,,,,,,,,,,,,,,,,,,,,,,,,,001,36,2020_Jan_10_1437,viewing,3.1.2,60.00295113385597,
north.png,stims/wedding-29.1a.mp4,stims/wedding-29.1b.mp4,stims/wedding-29.2a.mp4,stims/wedding-29.3a.mp4,stims/wedding-29.4a.mp4,stims/wedding-29.5.mp4,stimsday2details/egg29.png,stimsday2details/newegg17.png,stimsday2details/couple29.png,stimsday2details/newperson35.png,stimsday2details/new35.png,stimsday2details/gift29.png,stimsday2details/n29.png,stimsday2details/cn29.png,stimsday2details/ct29.png,stimsday2details/t29.png,0,10,10,10,,,,,0,0,0,0,,,,,,,,,,,,,,,,,,,,,,,1488.9450814053416,None,,,,,,,,,,,,,,,,,,,,,,,,,,,,,,,,,,,,,,,,,,,,,,,,,,,,,,,,,,,,,,,,,,,,,,,,,,,,,,,,,,,,,,,,,,,001,36,2020_Jan_10_1437,viewing,3.1.2,60.00295113385597,
north.png,stims/wedding-29.1a.mp4,stims/wedding-29.1b.mp4,stims/wedding-29.2a.mp4,stims/wedding-29.3a.mp4,stims/wedding-29.4a.mp4,stims/wedding-29.5.mp4,stimsday2details/egg29.png,stimsday2details/newegg17.png,stimsday2details/couple29.png,stimsday2details/newperson35.png,stimsday2details/new35.png,stimsday2details/gift29.png,stimsday2details/n29.png,stimsday2details/cn29.png,stimsday2details/ct29.png,stimsday2details/t29.png,0,10,10,10,,,,,,,,,0,0,0,0,,,,,,,,,,,,,,,,,,,,,3.058259828016162,None,1499.2617530999705,1524.211383071728,1524.228053174913,None,1533.2279078681022,None,1550.227730697021,None,1573.2273763259873,None,1597.2270983941853,None,,,,,,,,,,,,,,,,,,,,,,,,,,,,,,,,,,,,,,,,,,,,,,,,,,,,,,,,,,,,,,,,,,,,,,,,,,,,,001,36,2020_Jan_10_1437,viewing,3.1.2,60.00295113385597,
north.png,stims/wedding-29.1a.mp4,stims/wedding-29.1b.mp4,stims/wedding-29.2a.mp4,stims/wedding-29.3a.mp4,stims/wedding-29.4a.mp4,stims/wedding-29.5.mp4,stimsday2details/egg29.png,stimsday2details/newegg17.png,stimsday2details/couple29.png,stimsday2details/newperson35.png,stimsday2details/new35.png,stimsday2details/gift29.png,stimsday2details/n29.png,stimsday2details/cn29.png,stimsday2details/ct29.png,stimsday2details/t29.png,0,10,10,10,,,,,,,,,,,,,0,0,0,0,,,,,,,,,,,,,,,,,,,,,,,,,,,,,,,None,None,None,None,None,None,None,None,None,None,None,None,None,None,None,None,None,None,None,,None,None,None,,None,None,,,,,,,,,,,,,,,,,,,,,,,,,,,,,,,,,,,,,,,,,,,,,,,,,,,001,36,2020_Jan_10_1437,viewing,3.1.2,60.00295113385597,
north.png,stims/wedding-29.1a.mp4,stims/wedding-29.1b.mp4,stims/wedding-29.2a.mp4,stims/wedding-29.3a.mp4,stims/wedding-29.4a.mp4,stims/wedding-29.5.mp4,stimsday2details/egg29.png,stimsday2details/newegg17.png,stimsday2details/couple29.png,stimsday2details/newperson35.png,stimsday2details/new35.png,stimsday2details/gift29.png,stimsday2details/n29.png,stimsday2details/cn29.png,stimsday2details/ct29.png,stimsday2details/t29.png,0,10,10,10,,,,,,,,,,,,,,,,,,,,,,,,,,,,,,,,,,,,,,,,,,,,,,,,,,,,,,,,,,,,,,,,,,,,,,,,,2.646166831254959e-05,None,1,1.2354980641975999,1621.0268607344478,None,1621.0268607344478,None,1621.0268607344478,None,1623.0101663870737,None,1,0.7188135301694274,1623.0101663870737,None,1623.0101663870737,None,1625.0101440455765,None,1625.0101440455765,None,1,1.0520795518532395,1625.0101440455765,None,2,1.1669789860025048,1627.0101383551955,None,1627.0101383551955,None,1627.0101383551955,None,1629.0100983968005,None,1629.0100983968005,None,2,0.8356562247499824,1629.0100983968005,None,1631.0100676724687,None,1631.0100676724687,None,1,0.5190350590273738,1631.0100676724687,None,001,36,2020_Jan_10_1437,viewing,3.1.2,60.00295113385597,
south.png,stims/wedding-20.1a.mp4,stims/wedding-20.1b.mp4,stims/wedding-20.2a.mp4,stims/wedding-20.3b.mp4,stims/wedding-20.4a.mp4,stims/wedding-20.5.mp4,stimsday2details/egg20.png,stimsday2details/newegg18.png,stimsday2details/couple20.png,stimsday2details/newperson36.png,stimsday2details/new36.png,stimsday2details/gift20.png,stimsday2details/cn20.png,stimsday2details/n20.png,stimsday2details/ct20.png,stimsday2details/t20.png,0,11,11,11,0,0,0,0,,,,,,,,,,,,,,,,,,,,,,,,,1633.0100456997752,None,,,,,,,,,,,,,,,,,,,,,,,,,,,,,,,,,,,,,,,,,,,,,,,,,,,,,,,,,,,,,,,,,,,,,,,,,,,,,,,,,,,,,,,,,,,,,001,36,2020_Jan_10_1437,viewing,3.1.2,60.00295113385597,
south.png,stims/wedding-20.1a.mp4,stims/wedding-20.1b.mp4,stims/wedding-20.2a.mp4,stims/wedding-20.3b.mp4,stims/wedding-20.4a.mp4,stims/wedding-20.5.mp4,stimsday2details/egg20.png,stimsday2details/newegg18.png,stimsday2details/couple20.png,stimsday2details/newperson36.png,stimsday2details/new36.png,stimsday2details/gift20.png,stimsday2details/cn20.png,stimsday2details/n20.png,stimsday2details/ct20.png,stimsday2details/t20.png,0,11,11,11,,,,,0,0,0,0,,,,,,,,,,,,,,,,,,,,,,,None,None,,,,,,,,,,,,,,,,,,,,,,,,,,,,,,,,,,,,,,,,,,,,,,,,,,,,,,,,,,,,,,,,,,,,,,,,,,,,,,,,,,,,,,,,,,,001,36,2020_Jan_10_1437,viewing,3.1.2,60.00295113385597,
south.png,stims/wedding-20.1a.mp4,stims/wedding-20.1b.mp4,stims/wedding-20.2a.mp4,stims/wedding-20.3b.mp4,stims/wedding-20.4a.mp4,stims/wedding-20.5.mp4,stimsday2details/egg20.png,stimsday2details/newegg18.png,stimsday2details/couple20.png,stimsday2details/newperson36.png,stimsday2details/new36.png,stimsday2details/gift20.png,stimsday2details/cn20.png,stimsday2details/n20.png,stimsday2details/ct20.png,stimsday2details/t20.png,0,11,11,11,,,,,,,,,0,0,0,0,,,,,,,,,,,,,,,,,,,,,None,None,None,None,None,None,None,None,None,None,None,None,None,None,,,,,,,,,,,,,,,,,,,,,,,,,,,,,,,,,,,,,,,,,,,,,,,,,,,,,,,,,,,,,,,,,,,,,,,,,,,,,001,36,2020_Jan_10_1437,viewing,3.1.2,60.00295113385597,
south.png,stims/wedding-20.1a.mp4,stims/wedding-20.1b.mp4,stims/wedding-20.2a.mp4,stims/wedding-20.3b.mp4,stims/wedding-20.4a.mp4,stims/wedding-20.5.mp4,stimsday2details/egg20.png,stimsday2details/newegg18.png,stimsday2details/couple20.png,stimsday2details/newperson36.png,stimsday2details/new36.png,stimsday2details/gift20.png,stimsday2details/cn20.png,stimsday2details/n20.png,stimsday2details/ct20.png,stimsday2details/t20.png,0,11,11,11,,,,,,,,,,,,,0,0,0,0,,,,,,,,,,,,,,,,,,,,,,,,,,,,,,,2.94397712405771,None,1646.8789615919814,1671.9262426048517,1671.9428228316829,None,1680.9427938368171,1697.925903498195,1697.9426752142608,1701.9258193755522,1701.9425108209252,1724.9257043953985,1724.9422472873703,1728.9256005138159,1728.942199275829,1752.9252329291776,1752.9419428212568,None,['1'],[3.5353741012513638],1696.9425377361476,1701.9258193755522,['2'],[1.7690972769632936],1723.9422742705792,1728.9256005138159,,,,,,,,,,,,,,,,,,,,,,,,,,,,,,,,,,,,,,,,,,,,,,,,,,,001,36,2020_Jan_10_1437,viewing,3.1.2,60.00295113385597,
south.png,stims/wedding-20.1a.mp4,stims/wedding-20.1b.mp4,stims/wedding-20.2a.mp4,stims/wedding-20.3b.mp4,stims/wedding-20.4a.mp4,stims/wedding-20.5.mp4,stimsday2details/egg20.png,stimsday2details/newegg18.png,stimsday2details/couple20.png,stimsday2details/newperson36.png,stimsday2details/new36.png,stimsday2details/gift20.png,stimsday2details/cn20.png,stimsday2details/n20.png,stimsday2details/ct20.png,stimsday2details/t20.png,0,11,11,11,,,,,,,,,,,,,,,,,,,,,,,,,,,,,,,,,,,,,,,,,,,,,,,,,,,,,,,,,,,,,,,,,,,,,,,,,4.061870276927948e-05,None,2,0.985462331213057,1772.8583915857598,None,1772.8583915857598,None,1772.8583915857598,None,1774.8582985876128,None,1,0.8353206431493163,1774.8582985876128,None,1774.8582985876128,None,1776.8584458036348,None,1776.8584458036348,None,1,0.9018922699615359,1776.8584458036348,None,2,1.0689306240528822,1778.8582462044433,None,1778.8582462044433,None,1778.8582462044433,None,1780.8581678755581,None,1780.8581678755581,None,2,1.0854368256404996,1780.8581678755581,None,1782.8581348704174,None,1782.8581348704174,None,2,0.6355408662930131,1782.8581348704174,None,001,36,2020_Jan_10_1437,viewing,3.1.2,60.00295113385597,
