northOrSouth,stimFile1a,stimFile1b,stimFile2,stimFile3,stimFile4,stimFile5,Qeggpainting1,Qeggpainting2,Qcharacter1,Qcharacter2,Qgift1,Qgift2,Qname1,Qname2,Qtheme1,Qtheme2,trials.thisRepN,trials.thisTrialN,trials.thisN,trials.thisIndex,South.thisRepN,South.thisTrialN,South.thisN,South.thisIndex,North.thisRepN,North.thisTrialN,North.thisN,North.thisIndex,noQtrials.thisRepN,noQtrials.thisTrialN,noQtrials.thisN,noQtrials.thisIndex,Qtrials.thisRepN,Qtrials.thisTrialN,Qtrials.thisN,Qtrials.thisIndex,text.started,text.stopped,prep_trigger.keys,prep_trigger.rt,prep_trigger.started,prep_trigger.stopped,waiting.started,waiting.stopped,trigger.keys,trigger.rt,trigger.started,trigger.stopped,southCueImage.started,southCueImage.stopped,northCueImage.started,northCueImage.stopped,trialNoQs.started,trialNoQs.stopped,vid1a.started,vid1a.stopped,vid1b.started,vid1b.stopped,vid2.started,vid2.stopped,vid3.started,vid3.stopped,vid4.started,vid4.stopped,vid5.started,vid5.stopped,ISI2.started,ISI2.stopped,vid1a_q.started,vid1a_q.stopped,vid1b_q.started,vid1b_q.stopped,vid2_q.started,vid2_q.stopped,l2q.started,l2q.stopped,vid3_q.started,vid3_q.stopped,l3q.started,l3q.stopped,vid4_q.started,vid4_q.stopped,vid5_q.started,vid5_q.stopped,key_resp_2.keys,key_resp_2.rt,key_resp_2.started,key_resp_2.stopped,key_resp_3.keys,key_resp_3.rt,key_resp_3.started,key_resp_3.stopped,ISI7.started,ISI7.stopped,nameQresp.keys,nameQresp.rt,nameQresp.started,nameQresp.stopped,nameQ1.started,nameQ1.stopped,nameQ2.started,nameQ2.stopped,eggPainting1.started,eggPainting1.stopped,eggPaintingQresp.keys,eggPaintingQresp.rt,eggPaintingQresp.started,eggPaintingQresp.stopped,eggPainting2.started,eggPainting2.stopped,character1.started,character1.stopped,character2.started,character2.stopped,Qcharacter.keys,Qcharacter.rt,Qcharacter.started,Qcharacter.stopped,themeQresp.keys,themeQresp.rt,themeQresp.started,themeQresp.stopped,themeQ1.started,themeQ1.stopped,themeQ2.started,themeQ2.stopped,gift1.started,gift1.stopped,gift2.started,gift2.stopped,giftQresp.keys,giftQresp.rt,giftQresp.started,giftQresp.stopped,northorsouth1.started,northorsouth1.stopped,northorsouth2.started,northorsouth2.stopped,northOrSouthQ.keys,northOrSouthQ.rt,northOrSouthQ.started,northOrSouthQ.stopped,session,participant,date,expName,psychopyVersion,frameRate,
,,,,,,,,,,,,,,,,,,,,,,,,,,,,,,,,,,,,,5.87953000699963,None,g,1.4045375069999864,5.87953000699963,None,,,,,,,,,,,,,,,,,,,,,,,,,,,,,,,,,,,,,,,,,,,,,,,,,,,,,,,,,,,,,,,,,,,,,,,,,,,,,,,,,,,,,,,,,,,,,,,,,,,,,001,4,2019_Jul_11_1734,viewing,3.1.2,60.00083401117659,
,,,,,,,,,,,,,,,,,,,,,,,,,,,,,,,,,,,,,,,,,,,7.296254789998784,None,equal,23.05203153399998,7.296254789998784,None,,,,,,,,,,,,,,,,,,,,,,,,,,,,,,,,,,,,,,,,,,,,,,,,,,,,,,,,,,,,,,,,,,,,,,,,,,,,,,,,,,,,,,,,,,,,,,,001,4,2019_Jul_11_1734,viewing,3.1.2,60.00083401117659,
south.png,stims/wedding-23.1a.mp4,stims/wedding-23.1b.mp4,stims/wedding-23.2a.mp4,stims/wedding-23.3b.mp4,stims/wedding-23.4a.mp4,stims/wedding-23.5.mp4,stimsday2details/egg23.png,stimsday2details/newegg13.png,stimsday2details/newperson25.png,stimsday2details/couple23.png,stimsday2details/gift23.png,stimsday2details/new25.png,stimsday2details/cn23.png,stimsday2details/n23.png,stimsday2details/t23.png,stimsday2details/ct23.png,0,0,0,0,0,0,0,0,,,,,,,,,,,,,,,,,,,,,,,,,30.379301581999243,None,,,,,,,,,,,,,,,,,,,,,,,,,,,,,,,,,,,,,,,,,,,,,,,,,,,,,,,,,,,,,,,,,,,,,,,,,,,,,,,,,,,,,,,,,,,,,001,4,2019_Jul_11_1734,viewing,3.1.2,60.00083401117659,
south.png,stims/wedding-23.1a.mp4,stims/wedding-23.1b.mp4,stims/wedding-23.2a.mp4,stims/wedding-23.3b.mp4,stims/wedding-23.4a.mp4,stims/wedding-23.5.mp4,stimsday2details/egg23.png,stimsday2details/newegg13.png,stimsday2details/newperson25.png,stimsday2details/couple23.png,stimsday2details/gift23.png,stimsday2details/new25.png,stimsday2details/cn23.png,stimsday2details/n23.png,stimsday2details/t23.png,stimsday2details/ct23.png,0,0,0,0,,,,,0,0,0,0,,,,,,,,,,,,,,,,,,,,,,,None,None,,,,,,,,,,,,,,,,,,,,,,,,,,,,,,,,,,,,,,,,,,,,,,,,,,,,,,,,,,,,,,,,,,,,,,,,,,,,,,,,,,,,,,,,,,,001,4,2019_Jul_11_1734,viewing,3.1.2,60.00083401117659,
south.png,stims/wedding-23.1a.mp4,stims/wedding-23.1b.mp4,stims/wedding-23.2a.mp4,stims/wedding-23.3b.mp4,stims/wedding-23.4a.mp4,stims/wedding-23.5.mp4,stimsday2details/egg23.png,stimsday2details/newegg13.png,stimsday2details/newperson25.png,stimsday2details/couple23.png,stimsday2details/gift23.png,stimsday2details/new25.png,stimsday2details/cn23.png,stimsday2details/n23.png,stimsday2details/t23.png,stimsday2details/ct23.png,0,0,0,0,,,,,,,,,0,0,0,0,,,,,,,,,,,,,,,,,,,,,None,None,None,None,None,None,None,None,None,None,None,None,None,None,,,,,,,,,,,,,,,,,,,,,,,,,,,,,,,,,,,,,,,,,,,,,,,,,,,,,,,,,,,,,,,,,,,,,,,,,,,,,001,4,2019_Jul_11_1734,viewing,3.1.2,60.00083401117659,
south.png,stims/wedding-23.1a.mp4,stims/wedding-23.1b.mp4,stims/wedding-23.2a.mp4,stims/wedding-23.3b.mp4,stims/wedding-23.4a.mp4,stims/wedding-23.5.mp4,stimsday2details/egg23.png,stimsday2details/newegg13.png,stimsday2details/newperson25.png,stimsday2details/couple23.png,stimsday2details/gift23.png,stimsday2details/new25.png,stimsday2details/cn23.png,stimsday2details/n23.png,stimsday2details/t23.png,stimsday2details/ct23.png,0,0,0,0,,,,,,,,,,,,,0,0,0,0,,,,,,,,,,,,,,,,,,,,,,,,,,,,,,,2.787407612999232,None,43.129147906998696,68.34550159799983,68.34550159799983,None,77.34554252699854,94.34518432099867,94.34518432099867,98.3451584839986,98.3451584839986,121.34478842999852,121.34478842999852,125.34480736199839,125.34480736199839,149.34451500199975,149.34451500199975,None,['2'],[3.5026128080007766],93.34512709499904,98.3451584839986,['2'],[4.868450530999326],120.34486486300011,125.34480736199839,,,,,,,,,,,,,,,,,,,,,,,,,,,,,,,,,,,,,,,,,,,,,,,,,,,001,4,2019_Jul_11_1734,viewing,3.1.2,60.00083401117659,
south.png,stims/wedding-23.1a.mp4,stims/wedding-23.1b.mp4,stims/wedding-23.2a.mp4,stims/wedding-23.3b.mp4,stims/wedding-23.4a.mp4,stims/wedding-23.5.mp4,stimsday2details/egg23.png,stimsday2details/newegg13.png,stimsday2details/newperson25.png,stimsday2details/couple23.png,stimsday2details/gift23.png,stimsday2details/new25.png,stimsday2details/cn23.png,stimsday2details/n23.png,stimsday2details/t23.png,stimsday2details/ct23.png,0,0,0,0,,,,,,,,,,,,,,,,,,,,,,,,,,,,,,,,,,,,,,,,,,,,,,,,,,,,,,,,,,,,,,,,,,,,,,,,,2.625699926284142e-05,None,2,1.685076064999521,170.4608594069996,None,170.4608594069996,None,170.4608594069996,None,172.46083163999901,None,1,0.6685325670005113,172.46083163999901,None,172.46083163999901,None,174.4608666949989,None,174.4608666949989,None,2,0.5684127940003236,174.4608666949989,None,1,1.0851175240004522,176.46085809099895,None,176.46085809099895,None,176.46085809099895,None,178.46082015799948,None,178.46082015799948,None,1,0.5519819429991912,178.46082015799948,None,180.46079370999905,None,180.46079370999905,None,2,0.685316203000184,180.46079370999905,None,001,4,2019_Jul_11_1734,viewing,3.1.2,60.00083401117659,
north.png,stims/wedding-29.1a.mp4,stims/wedding-29.1b.mp4,stims/wedding-29.2b.mp4,stims/wedding-29.3b.mp4,stims/wedding-29.4b.mp4,stims/wedding-29.5.mp4,stimsday2details/painting29.png,stimsday2details/newpainting13.png,stimsday2details/couple29.png,stimsday2details/newperson26.png,stimsday2details/gift29.png,stimsday2details/new26.png,stimsday2details/n29.png,stimsday2details/cn29.png,stimsday2details/t29.png,stimsday2details/ct29.png,0,1,1,1,0,0,0,0,,,,,,,,,,,,,,,,,,,,,,,,,None,None,,,,,,,,,,,,,,,,,,,,,,,,,,,,,,,,,,,,,,,,,,,,,,,,,,,,,,,,,,,,,,,,,,,,,,,,,,,,,,,,,,,,,,,,,,,,,001,4,2019_Jul_11_1734,viewing,3.1.2,60.00083401117659,
north.png,stims/wedding-29.1a.mp4,stims/wedding-29.1b.mp4,stims/wedding-29.2b.mp4,stims/wedding-29.3b.mp4,stims/wedding-29.4b.mp4,stims/wedding-29.5.mp4,stimsday2details/painting29.png,stimsday2details/newpainting13.png,stimsday2details/couple29.png,stimsday2details/newperson26.png,stimsday2details/gift29.png,stimsday2details/new26.png,stimsday2details/n29.png,stimsday2details/cn29.png,stimsday2details/t29.png,stimsday2details/ct29.png,0,1,1,1,,,,,0,0,0,0,,,,,,,,,,,,,,,,,,,,,,,182.5107685109997,None,,,,,,,,,,,,,,,,,,,,,,,,,,,,,,,,,,,,,,,,,,,,,,,,,,,,,,,,,,,,,,,,,,,,,,,,,,,,,,,,,,,,,,,,,,,001,4,2019_Jul_11_1734,viewing,3.1.2,60.00083401117659,
north.png,stims/wedding-29.1a.mp4,stims/wedding-29.1b.mp4,stims/wedding-29.2b.mp4,stims/wedding-29.3b.mp4,stims/wedding-29.4b.mp4,stims/wedding-29.5.mp4,stimsday2details/painting29.png,stimsday2details/newpainting13.png,stimsday2details/couple29.png,stimsday2details/newperson26.png,stimsday2details/gift29.png,stimsday2details/new26.png,stimsday2details/n29.png,stimsday2details/cn29.png,stimsday2details/t29.png,stimsday2details/ct29.png,0,1,1,1,,,,,,,,,0,0,0,0,,,,,,,,,,,,,,,,,,,,,2.8994533280001633,None,192.4610022709985,217.56033426700014,217.57701119899866,None,226.5768338429989,None,243.57668558399928,266.55967342199983,266.57640305899986,None,290.57608621299914,None,,,,,,,,,,,,,,,,,,,,,,,,,,,,,,,,,,,,,,,,,,,,,,,,,,,,,,,,,,,,,,,,,,,,,,,,,,,,,001,4,2019_Jul_11_1734,viewing,3.1.2,60.00083401117659,
north.png,stims/wedding-29.1a.mp4,stims/wedding-29.1b.mp4,stims/wedding-29.2b.mp4,stims/wedding-29.3b.mp4,stims/wedding-29.4b.mp4,stims/wedding-29.5.mp4,stimsday2details/painting29.png,stimsday2details/newpainting13.png,stimsday2details/couple29.png,stimsday2details/newperson26.png,stimsday2details/gift29.png,stimsday2details/new26.png,stimsday2details/n29.png,stimsday2details/cn29.png,stimsday2details/t29.png,stimsday2details/ct29.png,0,1,1,1,,,,,,,,,,,,,0,0,0,0,,,,,,,,,,,,,,,,,,,,,,,,,,,,,,,None,None,None,None,None,None,None,None,None,None,None,None,None,None,None,None,None,None,None,,None,None,None,,None,None,,,,,,,,,,,,,,,,,,,,,,,,,,,,,,,,,,,,,,,,,,,,,,,,,,,001,4,2019_Jul_11_1734,viewing,3.1.2,60.00083401117659,
north.png,stims/wedding-29.1a.mp4,stims/wedding-29.1b.mp4,stims/wedding-29.2b.mp4,stims/wedding-29.3b.mp4,stims/wedding-29.4b.mp4,stims/wedding-29.5.mp4,stimsday2details/painting29.png,stimsday2details/newpainting13.png,stimsday2details/couple29.png,stimsday2details/newperson26.png,stimsday2details/gift29.png,stimsday2details/new26.png,stimsday2details/n29.png,stimsday2details/cn29.png,stimsday2details/t29.png,stimsday2details/ct29.png,0,1,1,1,,,,,,,,,,,,,,,,,,,,,,,,,,,,,,,,,,,,,,,,,,,,,,,,,,,,,,,,,,,,,,,,,,,,,,,,,3.599099909479264e-05,None,None,,313.70917071999975,None,313.70917071999975,None,313.70917071999975,None,315.70907239400003,None,1,1.3354238789997908,315.70907239400003,None,315.70907239400003,None,317.7091038219987,None,317.7091038219987,None,1,0.518816482001057,317.7091038219987,None,1,1.968833511999037,319.7090170749998,None,319.7090170749998,None,319.7090170749998,None,321.70906898999965,None,321.70906898999965,None,1,0.9183556930001942,321.70906898999965,None,323.70896628599985,None,323.70896628599985,None,1,1.5544160890003695,323.70896628599985,None,001,4,2019_Jul_11_1734,viewing,3.1.2,60.00083401117659,
north.png,stims/wedding-6.1a.mp4,stims/wedding-6.1b.mp4,stims/wedding-6.2a.mp4,stims/wedding-6.3a.mp4,stims/wedding-6.4a.mp4,stims/wedding-6.5.mp4,stimsday2details/newegg14.png,stimsday2details/egg6.png,stimsday2details/couple6.png,stimsday2details/newperson27.png,stimsday2details/gift6.png,stimsday2details/new27.png,stimsday2details/n6.png,stimsday2details/cn6.png,stimsday2details/t6.png,stimsday2details/ct6.png,0,2,2,2,0,0,0,0,,,,,,,,,,,,,,,,,,,,,,,,,None,None,,,,,,,,,,,,,,,,,,,,,,,,,,,,,,,,,,,,,,,,,,,,,,,,,,,,,,,,,,,,,,,,,,,,,,,,,,,,,,,,,,,,,,,,,,,,,001,4,2019_Jul_11_1734,viewing,3.1.2,60.00083401117659,
north.png,stims/wedding-6.1a.mp4,stims/wedding-6.1b.mp4,stims/wedding-6.2a.mp4,stims/wedding-6.3a.mp4,stims/wedding-6.4a.mp4,stims/wedding-6.5.mp4,stimsday2details/newegg14.png,stimsday2details/egg6.png,stimsday2details/couple6.png,stimsday2details/newperson27.png,stimsday2details/gift6.png,stimsday2details/new27.png,stimsday2details/n6.png,stimsday2details/cn6.png,stimsday2details/t6.png,stimsday2details/ct6.png,0,2,2,2,,,,,0,0,0,0,,,,,,,,,,,,,,,,,,,,,,,325.77568641200014,None,,,,,,,,,,,,,,,,,,,,,,,,,,,,,,,,,,,,,,,,,,,,,,,,,,,,,,,,,,,,,,,,,,,,,,,,,,,,,,,,,,,,,,,,,,,001,4,2019_Jul_11_1734,viewing,3.1.2,60.00083401117659,
north.png,stims/wedding-6.1a.mp4,stims/wedding-6.1b.mp4,stims/wedding-6.2a.mp4,stims/wedding-6.3a.mp4,stims/wedding-6.4a.mp4,stims/wedding-6.5.mp4,stimsday2details/newegg14.png,stimsday2details/egg6.png,stimsday2details/couple6.png,stimsday2details/newperson27.png,stimsday2details/gift6.png,stimsday2details/new27.png,stimsday2details/n6.png,stimsday2details/cn6.png,stimsday2details/t6.png,stimsday2details/ct6.png,0,2,2,2,,,,,,,,,0,0,0,0,,,,,,,,,,,,,,,,,,,,,3.1043491429991263,None,335.9592681869999,360.8585662730002,360.8585662730002,None,369.85846079600014,386.85817298099937,386.85817298099937,409.85798056800013,409.85798056800013,433.8576738849988,433.8576738849988,None,,,,,,,,,,,,,,,,,,,,,,,,,,,,,,,,,,,,,,,,,,,,,,,,,,,,,,,,,,,,,,,,,,,,,,,,,,,,,001,4,2019_Jul_11_1734,viewing,3.1.2,60.00083401117659,
north.png,stims/wedding-6.1a.mp4,stims/wedding-6.1b.mp4,stims/wedding-6.2a.mp4,stims/wedding-6.3a.mp4,stims/wedding-6.4a.mp4,stims/wedding-6.5.mp4,stimsday2details/newegg14.png,stimsday2details/egg6.png,stimsday2details/couple6.png,stimsday2details/newperson27.png,stimsday2details/gift6.png,stimsday2details/new27.png,stimsday2details/n6.png,stimsday2details/cn6.png,stimsday2details/t6.png,stimsday2details/ct6.png,0,2,2,2,,,,,,,,,,,,,0,0,0,0,,,,,,,,,,,,,,,,,,,,,,,,,,,,,,,None,None,None,None,None,None,None,None,None,None,None,None,None,None,None,None,None,None,None,,None,None,None,,None,None,,,,,,,,,,,,,,,,,,,,,,,,,,,,,,,,,,,,,,,,,,,,,,,,,,,001,4,2019_Jul_11_1734,viewing,3.1.2,60.00083401117659,
north.png,stims/wedding-6.1a.mp4,stims/wedding-6.1b.mp4,stims/wedding-6.2a.mp4,stims/wedding-6.3a.mp4,stims/wedding-6.4a.mp4,stims/wedding-6.5.mp4,stimsday2details/newegg14.png,stimsday2details/egg6.png,stimsday2details/couple6.png,stimsday2details/newperson27.png,stimsday2details/gift6.png,stimsday2details/new27.png,stimsday2details/n6.png,stimsday2details/cn6.png,stimsday2details/t6.png,stimsday2details/ct6.png,0,2,2,2,,,,,,,,,,,,,,,,,,,,,,,,,,,,,,,,,,,,,,,,,,,,,,,,,,,,,,,,,,,,,,,,,,,,,,,,,4.5780001528328285e-05,None,None,,457.60735436399955,None,457.60735436399955,None,457.60735436399955,None,459.59069260199976,None,1,1.651901805000307,459.59069260199976,None,459.59069260199976,None,461.59066220099885,None,461.59066220099885,None,1,0.8351367029990797,461.59066220099885,None,1,1.3353049140005169,463.59063203999904,None,463.59063203999904,None,463.59063203999904,None,465.5906086219984,None,465.5906086219984,None,1,0.7685082999996666,465.5906086219984,None,467.5905847869999,None,467.5905847869999,None,1,1.501932384999236,467.5905847869999,None,001,4,2019_Jul_11_1734,viewing,3.1.2,60.00083401117659,
south.png,stims/wedding-28.1a.mp4,stims/wedding-28.1b.mp4,stims/wedding-28.2b.mp4,stims/wedding-28.3a.mp4,stims/wedding-28.4b.mp4,stims/wedding-28.5.mp4,stimsday2details/newpainting14.png,stimsday2details/painting28.png,stimsday2details/newperson28.png,stimsday2details/couple28.png,stimsday2details/gift28.png,stimsday2details/new28.png,stimsday2details/cn28.png,stimsday2details/n28.png,stimsday2details/ct28.png,stimsday2details/t28.png,0,3,3,3,0,0,0,0,,,,,,,,,,,,,,,,,,,,,,,,,469.5905603579995,None,,,,,,,,,,,,,,,,,,,,,,,,,,,,,,,,,,,,,,,,,,,,,,,,,,,,,,,,,,,,,,,,,,,,,,,,,,,,,,,,,,,,,,,,,,,,,001,4,2019_Jul_11_1734,viewing,3.1.2,60.00083401117659,
south.png,stims/wedding-28.1a.mp4,stims/wedding-28.1b.mp4,stims/wedding-28.2b.mp4,stims/wedding-28.3a.mp4,stims/wedding-28.4b.mp4,stims/wedding-28.5.mp4,stimsday2details/newpainting14.png,stimsday2details/painting28.png,stimsday2details/newperson28.png,stimsday2details/couple28.png,stimsday2details/gift28.png,stimsday2details/new28.png,stimsday2details/cn28.png,stimsday2details/n28.png,stimsday2details/ct28.png,stimsday2details/t28.png,0,3,3,3,,,,,0,0,0,0,,,,,,,,,,,,,,,,,,,,,,,None,None,,,,,,,,,,,,,,,,,,,,,,,,,,,,,,,,,,,,,,,,,,,,,,,,,,,,,,,,,,,,,,,,,,,,,,,,,,,,,,,,,,,,,,,,,,,001,4,2019_Jul_11_1734,viewing,3.1.2,60.00083401117659,
south.png,stims/wedding-28.1a.mp4,stims/wedding-28.1b.mp4,stims/wedding-28.2b.mp4,stims/wedding-28.3a.mp4,stims/wedding-28.4b.mp4,stims/wedding-28.5.mp4,stimsday2details/newpainting14.png,stimsday2details/painting28.png,stimsday2details/newperson28.png,stimsday2details/couple28.png,stimsday2details/gift28.png,stimsday2details/new28.png,stimsday2details/cn28.png,stimsday2details/n28.png,stimsday2details/ct28.png,stimsday2details/t28.png,0,3,3,3,,,,,,,,,0,0,0,0,,,,,,,,,,,,,,,,,,,,,2.704931595000744,None,479.4738323829988,504.77338806899934,504.79013209599907,None,513.7900128949987,None,530.7898070949996,553.7728485379994,553.7895181909989,None,577.7892194809992,None,,,,,,,,,,,,,,,,,,,,,,,,,,,,,,,,,,,,,,,,,,,,,,,,,,,,,,,,,,,,,,,,,,,,,,,,,,,,,001,4,2019_Jul_11_1734,viewing,3.1.2,60.00083401117659,
south.png,stims/wedding-28.1a.mp4,stims/wedding-28.1b.mp4,stims/wedding-28.2b.mp4,stims/wedding-28.3a.mp4,stims/wedding-28.4b.mp4,stims/wedding-28.5.mp4,stimsday2details/newpainting14.png,stimsday2details/painting28.png,stimsday2details/newperson28.png,stimsday2details/couple28.png,stimsday2details/gift28.png,stimsday2details/new28.png,stimsday2details/cn28.png,stimsday2details/n28.png,stimsday2details/ct28.png,stimsday2details/t28.png,0,3,3,3,,,,,,,,,,,,,0,0,0,0,,,,,,,,,,,,,,,,,,,,,,,,,,,,,,,None,None,None,None,None,None,None,None,None,None,None,None,None,None,None,None,None,None,None,,None,None,None,,None,None,,,,,,,,,,,,,,,,,,,,,,,,,,,,,,,,,,,,,,,,,,,,,,,,,,,001,4,2019_Jul_11_1734,viewing,3.1.2,60.00083401117659,
south.png,stims/wedding-28.1a.mp4,stims/wedding-28.1b.mp4,stims/wedding-28.2b.mp4,stims/wedding-28.3a.mp4,stims/wedding-28.4b.mp4,stims/wedding-28.5.mp4,stimsday2details/newpainting14.png,stimsday2details/painting28.png,stimsday2details/newperson28.png,stimsday2details/couple28.png,stimsday2details/gift28.png,stimsday2details/new28.png,stimsday2details/cn28.png,stimsday2details/n28.png,stimsday2details/ct28.png,stimsday2details/t28.png,0,3,3,3,,,,,,,,,,,,,,,,,,,,,,,,,,,,,,,,,,,,,,,,,,,,,,,,,,,,,,,,,,,,,,,,,,,,,,,,,3.8148000385263003e-05,None,2,1.6017368190005072,601.7556578489985,None,601.7556578489985,None,601.7556578489985,None,603.7555687409986,None,2,0.8353142840005603,603.7555687409986,None,603.7555687409986,None,605.7555366879988,None,605.7555366879988,None,2,0.8686491690004914,605.7555366879988,None,None,,607.7555147809999,None,607.7555147809999,None,607.7555147809999,None,609.7555265149986,None,609.7555265149986,None,None,,609.7555265149986,None,611.7554064969991,None,611.7554064969991,None,1,1.0184290799988958,611.7554064969991,None,001,4,2019_Jul_11_1734,viewing,3.1.2,60.00083401117659,
south.png,stims/wedding-19.1a.mp4,stims/wedding-19.1b.mp4,stims/wedding-19.2b.mp4,stims/wedding-19.3a.mp4,stims/wedding-19.4b.mp4,stims/wedding-19.5.mp4,stimsday2details/newpainting15.png,stimsday2details/painting19.png,stimsday2details/couple19.png,stimsday2details/newperson29.png,stimsday2details/new29.png,stimsday2details/gift19.png,stimsday2details/cn19.png,stimsday2details/n19.png,stimsday2details/ct19.png,stimsday2details/t19.png,0,4,4,4,0,0,0,0,,,,,,,,,,,,,,,,,,,,,,,,,613.7553858329993,None,,,,,,,,,,,,,,,,,,,,,,,,,,,,,,,,,,,,,,,,,,,,,,,,,,,,,,,,,,,,,,,,,,,,,,,,,,,,,,,,,,,,,,,,,,,,,001,4,2019_Jul_11_1734,viewing,3.1.2,60.00083401117659,
south.png,stims/wedding-19.1a.mp4,stims/wedding-19.1b.mp4,stims/wedding-19.2b.mp4,stims/wedding-19.3a.mp4,stims/wedding-19.4b.mp4,stims/wedding-19.5.mp4,stimsday2details/newpainting15.png,stimsday2details/painting19.png,stimsday2details/couple19.png,stimsday2details/newperson29.png,stimsday2details/new29.png,stimsday2details/gift19.png,stimsday2details/cn19.png,stimsday2details/n19.png,stimsday2details/ct19.png,stimsday2details/t19.png,0,4,4,4,,,,,0,0,0,0,,,,,,,,,,,,,,,,,,,,,,,None,None,,,,,,,,,,,,,,,,,,,,,,,,,,,,,,,,,,,,,,,,,,,,,,,,,,,,,,,,,,,,,,,,,,,,,,,,,,,,,,,,,,,,,,,,,,,001,4,2019_Jul_11_1734,viewing,3.1.2,60.00083401117659,
south.png,stims/wedding-19.1a.mp4,stims/wedding-19.1b.mp4,stims/wedding-19.2b.mp4,stims/wedding-19.3a.mp4,stims/wedding-19.4b.mp4,stims/wedding-19.5.mp4,stimsday2details/newpainting15.png,stimsday2details/painting19.png,stimsday2details/couple19.png,stimsday2details/newperson29.png,stimsday2details/new29.png,stimsday2details/gift19.png,stimsday2details/cn19.png,stimsday2details/n19.png,stimsday2details/ct19.png,stimsday2details/t19.png,0,4,4,4,,,,,,,,,0,0,0,0,,,,,,,,,,,,,,,,,,,,,2.8886345950013492,None,623.8763831739998,648.9883400039998,648.9883400039998,None,658.0048881160001,674.9879502759995,675.0046793779984,697.9877257179996,698.0043931589989,None,722.0040946109984,None,,,,,,,,,,,,,,,,,,,,,,,,,,,,,,,,,,,,,,,,,,,,,,,,,,,,,,,,,,,,,,,,,,,,,,,,,,,,,001,4,2019_Jul_11_1734,viewing,3.1.2,60.00083401117659,
south.png,stims/wedding-19.1a.mp4,stims/wedding-19.1b.mp4,stims/wedding-19.2b.mp4,stims/wedding-19.3a.mp4,stims/wedding-19.4b.mp4,stims/wedding-19.5.mp4,stimsday2details/newpainting15.png,stimsday2details/painting19.png,stimsday2details/couple19.png,stimsday2details/newperson29.png,stimsday2details/new29.png,stimsday2details/gift19.png,stimsday2details/cn19.png,stimsday2details/n19.png,stimsday2details/ct19.png,stimsday2details/t19.png,0,4,4,4,,,,,,,,,,,,,0,0,0,0,,,,,,,,,,,,,,,,,,,,,,,,,,,,,,,None,None,None,None,None,None,None,None,None,None,None,None,None,None,None,None,None,None,None,,None,None,None,,None,None,,,,,,,,,,,,,,,,,,,,,,,,,,,,,,,,,,,,,,,,,,,,,,,,,,,001,4,2019_Jul_11_1734,viewing,3.1.2,60.00083401117659,
south.png,stims/wedding-19.1a.mp4,stims/wedding-19.1b.mp4,stims/wedding-19.2b.mp4,stims/wedding-19.3a.mp4,stims/wedding-19.4b.mp4,stims/wedding-19.5.mp4,stimsday2details/newpainting15.png,stimsday2details/painting19.png,stimsday2details/couple19.png,stimsday2details/newperson29.png,stimsday2details/new29.png,stimsday2details/gift19.png,stimsday2details/cn19.png,stimsday2details/n19.png,stimsday2details/ct19.png,stimsday2details/t19.png,0,4,4,4,,,,,,,,,,,,,,,,,,,,,,,,,,,,,,,,,,,,,,,,,,,,,,,,,,,,,,,,,,,,,,,,,,,,,,,,,3.8158999814186245e-05,None,None,,746.1038554549996,None,746.1038554549996,None,746.1038554549996,None,748.0871071469992,None,2,1.1019307219994516,748.0871071469992,None,748.0871071469992,None,750.0870855979992,None,750.0870855979992,None,1,0.6850721600003453,750.0870855979992,None,1,1.4016407369999797,752.087057622999,None,752.087057622999,None,752.087057622999,None,754.0869746529988,None,754.0869746529988,None,2,1.068425446999754,754.0869746529988,None,756.0870107859992,None,756.0870107859992,None,None,,756.0870107859992,None,001,4,2019_Jul_11_1734,viewing,3.1.2,60.00083401117659,
north.png,stims/wedding-1.1a.mp4,stims/wedding-1.1b.mp4,stims/wedding-1.2b.mp4,stims/wedding-1.3b.mp4,stims/wedding-1.4b.mp4,stims/wedding-1.5.mp4,stimsday2details/newpainting16.png,stimsday2details/painting1.png,stimsday2details/couple1.png,stimsday2details/newperson30.png,stimsday2details/gift1.png,stimsday2details/new30.png,stimsday2details/n1.png,stimsday2details/cn1.png,stimsday2details/t1.png,stimsday2details/ct1.png,0,5,5,5,0,0,0,0,,,,,,,,,,,,,,,,,,,,,,,,,None,None,,,,,,,,,,,,,,,,,,,,,,,,,,,,,,,,,,,,,,,,,,,,,,,,,,,,,,,,,,,,,,,,,,,,,,,,,,,,,,,,,,,,,,,,,,,,,001,4,2019_Jul_11_1734,viewing,3.1.2,60.00083401117659,
north.png,stims/wedding-1.1a.mp4,stims/wedding-1.1b.mp4,stims/wedding-1.2b.mp4,stims/wedding-1.3b.mp4,stims/wedding-1.4b.mp4,stims/wedding-1.5.mp4,stimsday2details/newpainting16.png,stimsday2details/painting1.png,stimsday2details/couple1.png,stimsday2details/newperson30.png,stimsday2details/gift1.png,stimsday2details/new30.png,stimsday2details/n1.png,stimsday2details/cn1.png,stimsday2details/t1.png,stimsday2details/ct1.png,0,5,5,5,,,,,0,0,0,0,,,,,,,,,,,,,,,,,,,,,,,758.2203321529996,None,,,,,,,,,,,,,,,,,,,,,,,,,,,,,,,,,,,,,,,,,,,,,,,,,,,,,,,,,,,,,,,,,,,,,,,,,,,,,,,,,,,,,,,,,,,001,4,2019_Jul_11_1734,viewing,3.1.2,60.00083401117659,
north.png,stims/wedding-1.1a.mp4,stims/wedding-1.1b.mp4,stims/wedding-1.2b.mp4,stims/wedding-1.3b.mp4,stims/wedding-1.4b.mp4,stims/wedding-1.5.mp4,stimsday2details/newpainting16.png,stimsday2details/painting1.png,stimsday2details/couple1.png,stimsday2details/newperson30.png,stimsday2details/gift1.png,stimsday2details/new30.png,stimsday2details/n1.png,stimsday2details/cn1.png,stimsday2details/t1.png,stimsday2details/ct1.png,0,5,5,5,,,,,,,,,0,0,0,0,,,,,,,,,,,,,,,,,,,,,2.8571210099999007,None,768.2224853509997,793.3532061589995,793.3698764059991,None,802.3697610169984,None,819.3695480819988,842.3692039500002,842.3692039500002,866.3689049389995,866.3689049389995,None,,,,,,,,,,,,,,,,,,,,,,,,,,,,,,,,,,,,,,,,,,,,,,,,,,,,,,,,,,,,,,,,,,,,,,,,,,,,,001,4,2019_Jul_11_1734,viewing,3.1.2,60.00083401117659,
north.png,stims/wedding-1.1a.mp4,stims/wedding-1.1b.mp4,stims/wedding-1.2b.mp4,stims/wedding-1.3b.mp4,stims/wedding-1.4b.mp4,stims/wedding-1.5.mp4,stimsday2details/newpainting16.png,stimsday2details/painting1.png,stimsday2details/couple1.png,stimsday2details/newperson30.png,stimsday2details/gift1.png,stimsday2details/new30.png,stimsday2details/n1.png,stimsday2details/cn1.png,stimsday2details/t1.png,stimsday2details/ct1.png,0,5,5,5,,,,,,,,,,,,,0,0,0,0,,,,,,,,,,,,,,,,,,,,,,,,,,,,,,,None,None,None,None,None,None,None,None,None,None,None,None,None,None,None,None,None,None,None,,None,None,None,,None,None,,,,,,,,,,,,,,,,,,,,,,,,,,,,,,,,,,,,,,,,,,,,,,,,,,,001,4,2019_Jul_11_1734,viewing,3.1.2,60.00083401117659,
north.png,stims/wedding-1.1a.mp4,stims/wedding-1.1b.mp4,stims/wedding-1.2b.mp4,stims/wedding-1.3b.mp4,stims/wedding-1.4b.mp4,stims/wedding-1.5.mp4,stimsday2details/newpainting16.png,stimsday2details/painting1.png,stimsday2details/couple1.png,stimsday2details/newperson30.png,stimsday2details/gift1.png,stimsday2details/new30.png,stimsday2details/n1.png,stimsday2details/cn1.png,stimsday2details/t1.png,stimsday2details/ct1.png,0,5,5,5,,,,,,,,,,,,,,,,,,,,,,,,,,,,,,,,,,,,,,,,,,,,,,,,,,,,,,,,,,,,,,,,,,,,,,,,,3.89279994124081e-05,None,None,,889.9891257639993,None,889.9891257639993,None,889.9891257639993,None,891.968588116999,None,None,,891.968588116999,None,891.968588116999,None,893.968624359999,None,893.968624359999,None,1,1.135322164000172,893.968624359999,None,1,1.8019164150009601,895.9685316529994,None,895.9685316529994,None,895.9685316529994,None,897.9685097229994,None,897.9685097229994,None,1,1.0186990959991817,897.9685097229994,None,899.968544985999,None,899.968544985999,None,1,0.8353514619993803,899.968544985999,None,001,4,2019_Jul_11_1734,viewing,3.1.2,60.00083401117659,
north.png,stims/wedding-34.1a.mp4,stims/wedding-34.1b.mp4,stims/wedding-34.2b.mp4,stims/wedding-34.3b.mp4,stims/wedding-34.4b.mp4,stims/wedding-34.5.mp4,stimsday2details/newpainting17.png,stimsday2details/painting34.png,stimsday2details/newperson31.png,stimsday2details/couple34.png,stimsday2details/gift34.png,stimsday2details/new31.png,stimsday2details/n34.png,stimsday2details/cn34.png,stimsday2details/t34.png,stimsday2details/ct34.png,0,6,6,6,0,0,0,0,,,,,,,,,,,,,,,,,,,,,,,,,None,None,,,,,,,,,,,,,,,,,,,,,,,,,,,,,,,,,,,,,,,,,,,,,,,,,,,,,,,,,,,,,,,,,,,,,,,,,,,,,,,,,,,,,,,,,,,,,001,4,2019_Jul_11_1734,viewing,3.1.2,60.00083401117659,
north.png,stims/wedding-34.1a.mp4,stims/wedding-34.1b.mp4,stims/wedding-34.2b.mp4,stims/wedding-34.3b.mp4,stims/wedding-34.4b.mp4,stims/wedding-34.5.mp4,stimsday2details/newpainting17.png,stimsday2details/painting34.png,stimsday2details/newperson31.png,stimsday2details/couple34.png,stimsday2details/gift34.png,stimsday2details/new31.png,stimsday2details/n34.png,stimsday2details/cn34.png,stimsday2details/t34.png,stimsday2details/ct34.png,0,6,6,6,,,,,0,0,0,0,,,,,,,,,,,,,,,,,,,,,,,902.1184562459985,None,,,,,,,,,,,,,,,,,,,,,,,,,,,,,,,,,,,,,,,,,,,,,,,,,,,,,,,,,,,,,,,,,,,,,,,,,,,,,,,,,,,,,,,,,,,001,4,2019_Jul_11_1734,viewing,3.1.2,60.00083401117659,
north.png,stims/wedding-34.1a.mp4,stims/wedding-34.1b.mp4,stims/wedding-34.2b.mp4,stims/wedding-34.3b.mp4,stims/wedding-34.4b.mp4,stims/wedding-34.5.mp4,stimsday2details/newpainting17.png,stimsday2details/painting34.png,stimsday2details/newperson31.png,stimsday2details/couple34.png,stimsday2details/gift34.png,stimsday2details/new31.png,stimsday2details/n34.png,stimsday2details/cn34.png,stimsday2details/t34.png,stimsday2details/ct34.png,0,6,6,6,,,,,,,,,0,0,0,0,,,,,,,,,,,,,,,,,,,,,2.900519238000925,None,912.4207222009991,937.5180793029995,937.5347443399987,946.5179621569987,946.5346320959998,None,963.5344204209996,986.5174638089993,986.5341403919992,None,1010.5338383229991,None,,,,,,,,,,,,,,,,,,,,,,,,,,,,,,,,,,,,,,,,,,,,,,,,,,,,,,,,,,,,,,,,,,,,,,,,,,,,,001,4,2019_Jul_11_1734,viewing,3.1.2,60.00083401117659,
north.png,stims/wedding-34.1a.mp4,stims/wedding-34.1b.mp4,stims/wedding-34.2b.mp4,stims/wedding-34.3b.mp4,stims/wedding-34.4b.mp4,stims/wedding-34.5.mp4,stimsday2details/newpainting17.png,stimsday2details/painting34.png,stimsday2details/newperson31.png,stimsday2details/couple34.png,stimsday2details/gift34.png,stimsday2details/new31.png,stimsday2details/n34.png,stimsday2details/cn34.png,stimsday2details/t34.png,stimsday2details/ct34.png,0,6,6,6,,,,,,,,,,,,,0,0,0,0,,,,,,,,,,,,,,,,,,,,,,,,,,,,,,,None,None,None,None,None,None,None,None,None,None,None,None,None,None,None,None,None,None,None,,None,None,None,,None,None,,,,,,,,,,,,,,,,,,,,,,,,,,,,,,,,,,,,,,,,,,,,,,,,,,,001,4,2019_Jul_11_1734,viewing,3.1.2,60.00083401117659,
north.png,stims/wedding-34.1a.mp4,stims/wedding-34.1b.mp4,stims/wedding-34.2b.mp4,stims/wedding-34.3b.mp4,stims/wedding-34.4b.mp4,stims/wedding-34.5.mp4,stimsday2details/newpainting17.png,stimsday2details/painting34.png,stimsday2details/newperson31.png,stimsday2details/couple34.png,stimsday2details/gift34.png,stimsday2details/new31.png,stimsday2details/n34.png,stimsday2details/cn34.png,stimsday2details/t34.png,stimsday2details/ct34.png,0,6,6,6,,,,,,,,,,,,,,,,,,,,,,,,,,,,,,,,,,,,,,,,,,,,,,,,,,,,,,,,,,,,,,,,,,,,,,,,,3.0028999390196986e-05,None,1,1.0523091930008377,1034.0335515139996,None,1034.0335515139996,None,1034.0335515139996,None,1036.0168521509986,None,2,0.9517698110012134,1036.0168521509986,None,1036.0168521509986,None,1038.0167641560001,None,1038.0167641560001,None,2,0.7351115999990725,1038.0167641560001,None,1,1.2351528019989928,1040.0167941579984,None,1040.0167941579984,None,1040.0167941579984,None,1042.0167813279986,None,1042.0167813279986,None,1,0.9021105290012201,1042.0167813279986,None,1044.0167483259993,None,1044.0167483259993,None,1,1.7683092989991565,1044.0167483259993,None,001,4,2019_Jul_11_1734,viewing,3.1.2,60.00083401117659,
south.png,stims/wedding-20.1a.mp4,stims/wedding-20.1b.mp4,stims/wedding-20.2a.mp4,stims/wedding-20.3b.mp4,stims/wedding-20.4a.mp4,stims/wedding-20.5.mp4,stimsday2details/egg20.png,stimsday2details/newegg15.png,stimsday2details/newperson32.png,stimsday2details/couple20.png,stimsday2details/new32.png,stimsday2details/gift20.png,stimsday2details/n20.png,stimsday2details/cn20.png,stimsday2details/ct20.png,stimsday2details/t20.png,0,7,7,7,0,0,0,0,,,,,,,,,,,,,,,,,,,,,,,,,1046.0167299469995,None,,,,,,,,,,,,,,,,,,,,,,,,,,,,,,,,,,,,,,,,,,,,,,,,,,,,,,,,,,,,,,,,,,,,,,,,,,,,,,,,,,,,,,,,,,,,,001,4,2019_Jul_11_1734,viewing,3.1.2,60.00083401117659,
south.png,stims/wedding-20.1a.mp4,stims/wedding-20.1b.mp4,stims/wedding-20.2a.mp4,stims/wedding-20.3b.mp4,stims/wedding-20.4a.mp4,stims/wedding-20.5.mp4,stimsday2details/egg20.png,stimsday2details/newegg15.png,stimsday2details/newperson32.png,stimsday2details/couple20.png,stimsday2details/new32.png,stimsday2details/gift20.png,stimsday2details/n20.png,stimsday2details/cn20.png,stimsday2details/ct20.png,stimsday2details/t20.png,0,7,7,7,,,,,0,0,0,0,,,,,,,,,,,,,,,,,,,,,,,None,None,,,,,,,,,,,,,,,,,,,,,,,,,,,,,,,,,,,,,,,,,,,,,,,,,,,,,,,,,,,,,,,,,,,,,,,,,,,,,,,,,,,,,,,,,,,001,4,2019_Jul_11_1734,viewing,3.1.2,60.00083401117659,
south.png,stims/wedding-20.1a.mp4,stims/wedding-20.1b.mp4,stims/wedding-20.2a.mp4,stims/wedding-20.3b.mp4,stims/wedding-20.4a.mp4,stims/wedding-20.5.mp4,stimsday2details/egg20.png,stimsday2details/newegg15.png,stimsday2details/newperson32.png,stimsday2details/couple20.png,stimsday2details/new32.png,stimsday2details/gift20.png,stimsday2details/n20.png,stimsday2details/cn20.png,stimsday2details/ct20.png,stimsday2details/t20.png,0,7,7,7,,,,,,,,,0,0,0,0,,,,,,,,,,,,,,,,,,,,,2.8551439849998133,None,1056.2332712799998,1081.3829498899995,1081.3996189339996,None,1090.3995018159985,1107.3993100829994,1107.4159648199984,1130.3823426039999,1130.399004924,1154.415308644,1154.415308644,None,,,,,,,,,,,,,,,,,,,,,,,,,,,,,,,,,,,,,,,,,,,,,,,,,,,,,,,,,,,,,,,,,,,,,,,,,,,,,001,4,2019_Jul_11_1734,viewing,3.1.2,60.00083401117659,
south.png,stims/wedding-20.1a.mp4,stims/wedding-20.1b.mp4,stims/wedding-20.2a.mp4,stims/wedding-20.3b.mp4,stims/wedding-20.4a.mp4,stims/wedding-20.5.mp4,stimsday2details/egg20.png,stimsday2details/newegg15.png,stimsday2details/newperson32.png,stimsday2details/couple20.png,stimsday2details/new32.png,stimsday2details/gift20.png,stimsday2details/n20.png,stimsday2details/cn20.png,stimsday2details/ct20.png,stimsday2details/t20.png,0,7,7,7,,,,,,,,,,,,,0,0,0,0,,,,,,,,,,,,,,,,,,,,,,,,,,,,,,,None,None,None,None,None,None,None,None,None,None,None,None,None,None,None,None,None,None,None,,None,None,None,,None,None,,,,,,,,,,,,,,,,,,,,,,,,,,,,,,,,,,,,,,,,,,,,,,,,,,,001,4,2019_Jul_11_1734,viewing,3.1.2,60.00083401117659,
south.png,stims/wedding-20.1a.mp4,stims/wedding-20.1b.mp4,stims/wedding-20.2a.mp4,stims/wedding-20.3b.mp4,stims/wedding-20.4a.mp4,stims/wedding-20.5.mp4,stimsday2details/egg20.png,stimsday2details/newegg15.png,stimsday2details/newperson32.png,stimsday2details/couple20.png,stimsday2details/new32.png,stimsday2details/gift20.png,stimsday2details/n20.png,stimsday2details/cn20.png,stimsday2details/ct20.png,stimsday2details/t20.png,0,7,7,7,,,,,,,,,,,,,,,,,,,,,,,,,,,,,,,,,,,,,,,,,,,,,,,,,,,,,,,,,,,,,,,,,,,,,,,,,4.050499956065323e-05,None,1,0.9187006329993892,1177.2818188619985,None,1177.2818188619985,None,1177.2818188619985,None,1179.2817271299991,None,1,0.6017691010001727,1179.2817271299991,None,1179.2817271299991,None,1181.281648828999,None,1181.281648828999,None,2,0.635185224999077,1181.281648828999,None,2,1.3184167590006837,1183.2816851799998,None,1183.2816851799998,None,1183.2816851799998,None,1185.2816565049998,None,1185.2816565049998,None,2,1.6350160909987608,1185.2816565049998,None,1187.2816313669991,None,1187.2816313669991,None,2,1.4184244410007523,1187.2816313669991,None,001,4,2019_Jul_11_1734,viewing,3.1.2,60.00083401117659,
south.png,stims/wedding-17.1a.mp4,stims/wedding-17.1b.mp4,stims/wedding-17.2b.mp4,stims/wedding-17.3a.mp4,stims/wedding-17.4b.mp4,stims/wedding-17.5.mp4,stimsday2details/painting17.png,stimsday2details/newpainting18.png,stimsday2details/newperson33.png,stimsday2details/couple17.png,stimsday2details/new33.png,stimsday2details/gift17.png,stimsday2details/cn17.png,stimsday2details/n17.png,stimsday2details/t17.png,stimsday2details/ct17.png,0,8,8,8,0,0,0,0,,,,,,,,,,,,,,,,,,,,,,,,,1189.281609488,None,,,,,,,,,,,,,,,,,,,,,,,,,,,,,,,,,,,,,,,,,,,,,,,,,,,,,,,,,,,,,,,,,,,,,,,,,,,,,,,,,,,,,,,,,,,,,001,4,2019_Jul_11_1734,viewing,3.1.2,60.00083401117659,
south.png,stims/wedding-17.1a.mp4,stims/wedding-17.1b.mp4,stims/wedding-17.2b.mp4,stims/wedding-17.3a.mp4,stims/wedding-17.4b.mp4,stims/wedding-17.5.mp4,stimsday2details/painting17.png,stimsday2details/newpainting18.png,stimsday2details/newperson33.png,stimsday2details/couple17.png,stimsday2details/new33.png,stimsday2details/gift17.png,stimsday2details/cn17.png,stimsday2details/n17.png,stimsday2details/t17.png,stimsday2details/ct17.png,0,8,8,8,,,,,0,0,0,0,,,,,,,,,,,,,,,,,,,,,,,None,None,,,,,,,,,,,,,,,,,,,,,,,,,,,,,,,,,,,,,,,,,,,,,,,,,,,,,,,,,,,,,,,,,,,,,,,,,,,,,,,,,,,,,,,,,,,001,4,2019_Jul_11_1734,viewing,3.1.2,60.00083401117659,
south.png,stims/wedding-17.1a.mp4,stims/wedding-17.1b.mp4,stims/wedding-17.2b.mp4,stims/wedding-17.3a.mp4,stims/wedding-17.4b.mp4,stims/wedding-17.5.mp4,stimsday2details/painting17.png,stimsday2details/newpainting18.png,stimsday2details/newperson33.png,stimsday2details/couple17.png,stimsday2details/new33.png,stimsday2details/gift17.png,stimsday2details/cn17.png,stimsday2details/n17.png,stimsday2details/t17.png,stimsday2details/ct17.png,0,8,8,8,,,,,,,,,0,0,0,0,,,,,,,,,,,,,,,,,,,,,2.848974176999036,None,1199.548151764,None,1224.697836596999,None,1233.6977220919998,None,1250.6975052899998,None,1273.7138321799994,None,1297.7135944949987,None,,,,,,,,,,,,,,,,,,,,,,,,,,,,,,,,,,,,,,,,,,,,,,,,,,,,,,,,,,,,,,,,,,,,,,,,,,,,,001,4,2019_Jul_11_1734,viewing,3.1.2,60.00083401117659,
south.png,stims/wedding-17.1a.mp4,stims/wedding-17.1b.mp4,stims/wedding-17.2b.mp4,stims/wedding-17.3a.mp4,stims/wedding-17.4b.mp4,stims/wedding-17.5.mp4,stimsday2details/painting17.png,stimsday2details/newpainting18.png,stimsday2details/newperson33.png,stimsday2details/couple17.png,stimsday2details/new33.png,stimsday2details/gift17.png,stimsday2details/cn17.png,stimsday2details/n17.png,stimsday2details/t17.png,stimsday2details/ct17.png,0,8,8,8,,,,,,,,,,,,,0,0,0,0,,,,,,,,,,,,,,,,,,,,,,,,,,,,,,,None,None,None,None,None,None,None,None,None,None,None,None,None,None,None,None,None,None,None,,None,None,None,,None,None,,,,,,,,,,,,,,,,,,,,,,,,,,,,,,,,,,,,,,,,,,,,,,,,,,,001,4,2019_Jul_11_1734,viewing,3.1.2,60.00083401117659,
south.png,stims/wedding-17.1a.mp4,stims/wedding-17.1b.mp4,stims/wedding-17.2b.mp4,stims/wedding-17.3a.mp4,stims/wedding-17.4b.mp4,stims/wedding-17.5.mp4,stimsday2details/painting17.png,stimsday2details/newpainting18.png,stimsday2details/newperson33.png,stimsday2details/couple17.png,stimsday2details/new33.png,stimsday2details/gift17.png,stimsday2details/cn17.png,stimsday2details/n17.png,stimsday2details/t17.png,stimsday2details/ct17.png,0,8,8,8,,,,,,,,,,,,,,,,,,,,,,,,,,,,,,,,,,,,,,,,,,,,,,,,,,,,,,,,,,,,,,,,,,,,,,,,,4.20319993281737e-05,None,2,0.9674514600010298,1321.514469194999,None,1321.514469194999,None,1321.514469194999,None,1323.4966009319996,None,1,0.8017886690013256,1323.4966009319996,None,1323.4966009319996,None,1325.4965794979998,None,1325.4965794979998,None,2,0.6517689880001853,1325.4965794979998,None,1,1.2850971360003314,1327.496553429999,None,1327.496553429999,None,1327.496553429999,None,1329.4965328189992,None,1329.4965328189992,None,2,0.8519323929995153,1329.4965328189992,None,1331.4965060819995,None,1331.4965060819995,None,2,1.3350770299985015,1331.4965060819995,None,001,4,2019_Jul_11_1734,viewing,3.1.2,60.00083401117659,
north.png,stims/wedding-22.1a.mp4,stims/wedding-22.1b.mp4,stims/wedding-22.2a.mp4,stims/wedding-22.3a.mp4,stims/wedding-22.4a.mp4,stims/wedding-22.5.mp4,stimsday2details/egg22.png,stimsday2details/newegg16.png,stimsday2details/newperson34.png,stimsday2details/couple22.png,stimsday2details/new34.png,stimsday2details/gift22.png,stimsday2details/n22.png,stimsday2details/cn22.png,stimsday2details/ct22.png,stimsday2details/t22.png,0,9,9,9,0,0,0,0,,,,,,,,,,,,,,,,,,,,,,,,,None,None,,,,,,,,,,,,,,,,,,,,,,,,,,,,,,,,,,,,,,,,,,,,,,,,,,,,,,,,,,,,,,,,,,,,,,,,,,,,,,,,,,,,,,,,,,,,,001,4,2019_Jul_11_1734,viewing,3.1.2,60.00083401117659,
north.png,stims/wedding-22.1a.mp4,stims/wedding-22.1b.mp4,stims/wedding-22.2a.mp4,stims/wedding-22.3a.mp4,stims/wedding-22.4a.mp4,stims/wedding-22.5.mp4,stimsday2details/egg22.png,stimsday2details/newegg16.png,stimsday2details/newperson34.png,stimsday2details/couple22.png,stimsday2details/new34.png,stimsday2details/gift22.png,stimsday2details/n22.png,stimsday2details/cn22.png,stimsday2details/ct22.png,stimsday2details/t22.png,0,9,9,9,,,,,0,0,0,0,,,,,,,,,,,,,,,,,,,,,,,1333.8631598079992,None,,,,,,,,,,,,,,,,,,,,,,,,,,,,,,,,,,,,,,,,,,,,,,,,,,,,,,,,,,,,,,,,,,,,,,,,,,,,,,,,,,,,,,,,,,,001,4,2019_Jul_11_1734,viewing,3.1.2,60.00083401117659,
north.png,stims/wedding-22.1a.mp4,stims/wedding-22.1b.mp4,stims/wedding-22.2a.mp4,stims/wedding-22.3a.mp4,stims/wedding-22.4a.mp4,stims/wedding-22.5.mp4,stimsday2details/egg22.png,stimsday2details/newegg16.png,stimsday2details/newperson34.png,stimsday2details/couple22.png,stimsday2details/new34.png,stimsday2details/gift22.png,stimsday2details/n22.png,stimsday2details/cn22.png,stimsday2details/ct22.png,stimsday2details/t22.png,0,9,9,9,,,,,,,,,0,0,0,0,,,,,,,,,,,,,,,,,,,,,2.950350092000008,None,1344.046350491999,1369.0960425499998,1369.0960425499998,None,1378.0959306449986,None,1395.0957204159986,None,1418.095436489999,1442.0950760569995,1442.1118065559986,None,,,,,,,,,,,,,,,,,,,,,,,,,,,,,,,,,,,,,,,,,,,,,,,,,,,,,,,,,,,,,,,,,,,,,,,,,,,,,001,4,2019_Jul_11_1734,viewing,3.1.2,60.00083401117659,
north.png,stims/wedding-22.1a.mp4,stims/wedding-22.1b.mp4,stims/wedding-22.2a.mp4,stims/wedding-22.3a.mp4,stims/wedding-22.4a.mp4,stims/wedding-22.5.mp4,stimsday2details/egg22.png,stimsday2details/newegg16.png,stimsday2details/newperson34.png,stimsday2details/couple22.png,stimsday2details/new34.png,stimsday2details/gift22.png,stimsday2details/n22.png,stimsday2details/cn22.png,stimsday2details/ct22.png,stimsday2details/t22.png,0,9,9,9,,,,,,,,,,,,,0,0,0,0,,,,,,,,,,,,,,,,,,,,,,,,,,,,,,,None,None,None,None,None,None,None,None,None,None,None,None,None,None,None,None,None,None,None,,None,None,None,,None,None,,,,,,,,,,,,,,,,,,,,,,,,,,,,,,,,,,,,,,,,,,,,,,,,,,,001,4,2019_Jul_11_1734,viewing,3.1.2,60.00083401117659,
north.png,stims/wedding-22.1a.mp4,stims/wedding-22.1b.mp4,stims/wedding-22.2a.mp4,stims/wedding-22.3a.mp4,stims/wedding-22.4a.mp4,stims/wedding-22.5.mp4,stimsday2details/egg22.png,stimsday2details/newegg16.png,stimsday2details/newperson34.png,stimsday2details/couple22.png,stimsday2details/new34.png,stimsday2details/gift22.png,stimsday2details/n22.png,stimsday2details/cn22.png,stimsday2details/ct22.png,stimsday2details/t22.png,0,9,9,9,,,,,,,,,,,,,,,,,,,,,,,,,,,,,,,,,,,,,,,,,,,,,,,,,,,,,,,,,,,,,,,,,,,,,,,,,2.8589998692041263e-05,None,1,0.752335786999538,1466.044944154999,None,1466.044944154999,None,1466.044944154999,None,1468.0280960419987,None,1,0.6354127529994003,1468.0280960419987,None,1468.0280960419987,None,1470.0281268439994,None,1470.0281268439994,None,2,0.7020787510009541,1470.0281268439994,None,2,1.4686039619991789,1472.028110121999,None,1472.028110121999,None,1472.028110121999,None,1474.0280758239987,None,1474.0280758239987,None,2,1.2684640010011208,1474.0280758239987,None,1476.0280509189997,None,1476.0280509189997,None,2,1.2520360250000522,1476.0280509189997,None,001,4,2019_Jul_11_1734,viewing,3.1.2,60.00083401117659,
north.png,stims/wedding-38.1a.mp4,stims/wedding-38.1b.mp4,stims/wedding-38.2a.mp4,stims/wedding-38.3a.mp4,stims/wedding-38.4a.mp4,stims/wedding-38.5.mp4,stimsday2details/egg38.png,stimsday2details/newegg17.png,stimsday2details/newperson35.png,stimsday2details/couple38.png,stimsday2details/new35.png,stimsday2details/gift38.png,stimsday2details/cn38.png,stimsday2details/n38.png,stimsday2details/ct38.png,stimsday2details/t38.png,0,10,10,10,0,0,0,0,,,,,,,,,,,,,,,,,,,,,,,,,None,None,,,,,,,,,,,,,,,,,,,,,,,,,,,,,,,,,,,,,,,,,,,,,,,,,,,,,,,,,,,,,,,,,,,,,,,,,,,,,,,,,,,,,,,,,,,,,001,4,2019_Jul_11_1734,viewing,3.1.2,60.00083401117659,
north.png,stims/wedding-38.1a.mp4,stims/wedding-38.1b.mp4,stims/wedding-38.2a.mp4,stims/wedding-38.3a.mp4,stims/wedding-38.4a.mp4,stims/wedding-38.5.mp4,stimsday2details/egg38.png,stimsday2details/newegg17.png,stimsday2details/newperson35.png,stimsday2details/couple38.png,stimsday2details/new35.png,stimsday2details/gift38.png,stimsday2details/cn38.png,stimsday2details/n38.png,stimsday2details/ct38.png,stimsday2details/t38.png,0,10,10,10,,,,,0,0,0,0,,,,,,,,,,,,,,,,,,,,,,,1478.278033523,None,,,,,,,,,,,,,,,,,,,,,,,,,,,,,,,,,,,,,,,,,,,,,,,,,,,,,,,,,,,,,,,,,,,,,,,,,,,,,,,,,,,,,,,,,,,001,4,2019_Jul_11_1734,viewing,3.1.2,60.00083401117659,
north.png,stims/wedding-38.1a.mp4,stims/wedding-38.1b.mp4,stims/wedding-38.2a.mp4,stims/wedding-38.3a.mp4,stims/wedding-38.4a.mp4,stims/wedding-38.5.mp4,stimsday2details/egg38.png,stimsday2details/newegg17.png,stimsday2details/newperson35.png,stimsday2details/couple38.png,stimsday2details/new35.png,stimsday2details/gift38.png,stimsday2details/cn38.png,stimsday2details/n38.png,stimsday2details/ct38.png,stimsday2details/t38.png,0,10,10,10,,,,,,,,,0,0,0,0,,,,,,,,,,,,,,,,,,,,,2.8274171680004656,None,1488.3611538939986,1513.5275862669987,1513.5442528029998,None,1522.544148265999,1539.5272626739988,1539.543933862,1562.526979282,1562.5436461640002,None,1586.5433472179993,None,,,,,,,,,,,,,,,,,,,,,,,,,,,,,,,,,,,,,,,,,,,,,,,,,,,,,,,,,,,,,,,,,,,,,,,,,,,,,001,4,2019_Jul_11_1734,viewing,3.1.2,60.00083401117659,
north.png,stims/wedding-38.1a.mp4,stims/wedding-38.1b.mp4,stims/wedding-38.2a.mp4,stims/wedding-38.3a.mp4,stims/wedding-38.4a.mp4,stims/wedding-38.5.mp4,stimsday2details/egg38.png,stimsday2details/newegg17.png,stimsday2details/newperson35.png,stimsday2details/couple38.png,stimsday2details/new35.png,stimsday2details/gift38.png,stimsday2details/cn38.png,stimsday2details/n38.png,stimsday2details/ct38.png,stimsday2details/t38.png,0,10,10,10,,,,,,,,,,,,,0,0,0,0,,,,,,,,,,,,,,,,,,,,,,,,,,,,,,,None,None,None,None,None,None,None,None,None,None,None,None,None,None,None,None,None,None,None,,None,None,None,,None,None,,,,,,,,,,,,,,,,,,,,,,,,,,,,,,,,,,,,,,,,,,,,,,,,,,,001,4,2019_Jul_11_1734,viewing,3.1.2,60.00083401117659,
north.png,stims/wedding-38.1a.mp4,stims/wedding-38.1b.mp4,stims/wedding-38.2a.mp4,stims/wedding-38.3a.mp4,stims/wedding-38.4a.mp4,stims/wedding-38.5.mp4,stimsday2details/egg38.png,stimsday2details/newegg17.png,stimsday2details/newperson35.png,stimsday2details/couple38.png,stimsday2details/new35.png,stimsday2details/gift38.png,stimsday2details/cn38.png,stimsday2details/n38.png,stimsday2details/ct38.png,stimsday2details/t38.png,0,10,10,10,,,,,,,,,,,,,,,,,,,,,,,,,,,,,,,,,,,,,,,,,,,,,,,,,,,,,,,,,,,,,,,,,,,,,,,,,5.6427999879815616e-05,None,2,0.8516715069999918,1610.659784268999,None,1610.659784268999,None,1610.659784268999,None,1612.659630566999,None,1,0.5184891709996009,1612.659630566999,None,1612.659630566999,None,1614.6596631929988,None,1614.6596631929988,None,2,0.6853248229999735,1614.6596631929988,None,2,1.2186901969998871,1616.6596458099993,None,1616.6596458099993,None,1616.6596458099993,None,1618.6596213109988,None,1618.6596213109988,None,2,0.7186341119995632,1618.6596213109988,None,1620.6595847139997,None,1620.6595847139997,None,1,1.6850515789992642,1620.6595847139997,None,001,4,2019_Jul_11_1734,viewing,3.1.2,60.00083401117659,
south.png,stims/wedding-2.1a.mp4,stims/wedding-2.1b.mp4,stims/wedding-2.2a.mp4,stims/wedding-2.3b.mp4,stims/wedding-2.4a.mp4,stims/wedding-2.5.mp4,stimsday2details/newegg18.png,stimsday2details/egg2.png,stimsday2details/newperson36.png,stimsday2details/couple2.png,stimsday2details/gift2.png,stimsday2details/new36.png,stimsday2details/n2.png,stimsday2details/cn2.png,stimsday2details/t2.png,stimsday2details/ct2.png,0,11,11,11,0,0,0,0,,,,,,,,,,,,,,,,,,,,,,,,,1622.659569350999,None,,,,,,,,,,,,,,,,,,,,,,,,,,,,,,,,,,,,,,,,,,,,,,,,,,,,,,,,,,,,,,,,,,,,,,,,,,,,,,,,,,,,,,,,,,,,,001,4,2019_Jul_11_1734,viewing,3.1.2,60.00083401117659,
south.png,stims/wedding-2.1a.mp4,stims/wedding-2.1b.mp4,stims/wedding-2.2a.mp4,stims/wedding-2.3b.mp4,stims/wedding-2.4a.mp4,stims/wedding-2.5.mp4,stimsday2details/newegg18.png,stimsday2details/egg2.png,stimsday2details/newperson36.png,stimsday2details/couple2.png,stimsday2details/gift2.png,stimsday2details/new36.png,stimsday2details/n2.png,stimsday2details/cn2.png,stimsday2details/t2.png,stimsday2details/ct2.png,0,11,11,11,,,,,0,0,0,0,,,,,,,,,,,,,,,,,,,,,,,None,None,,,,,,,,,,,,,,,,,,,,,,,,,,,,,,,,,,,,,,,,,,,,,,,,,,,,,,,,,,,,,,,,,,,,,,,,,,,,,,,,,,,,,,,,,,,001,4,2019_Jul_11_1734,viewing,3.1.2,60.00083401117659,
south.png,stims/wedding-2.1a.mp4,stims/wedding-2.1b.mp4,stims/wedding-2.2a.mp4,stims/wedding-2.3b.mp4,stims/wedding-2.4a.mp4,stims/wedding-2.5.mp4,stimsday2details/newegg18.png,stimsday2details/egg2.png,stimsday2details/newperson36.png,stimsday2details/couple2.png,stimsday2details/gift2.png,stimsday2details/new36.png,stimsday2details/n2.png,stimsday2details/cn2.png,stimsday2details/t2.png,stimsday2details/ct2.png,0,11,11,11,,,,,,,,,0,0,0,0,,,,,,,,,,,,,,,,,,,,,None,None,None,None,None,None,None,None,None,None,None,None,None,None,,,,,,,,,,,,,,,,,,,,,,,,,,,,,,,,,,,,,,,,,,,,,,,,,,,,,,,,,,,,,,,,,,,,,,,,,,,,,001,4,2019_Jul_11_1734,viewing,3.1.2,60.00083401117659,
south.png,stims/wedding-2.1a.mp4,stims/wedding-2.1b.mp4,stims/wedding-2.2a.mp4,stims/wedding-2.3b.mp4,stims/wedding-2.4a.mp4,stims/wedding-2.5.mp4,stimsday2details/newegg18.png,stimsday2details/egg2.png,stimsday2details/newperson36.png,stimsday2details/couple2.png,stimsday2details/gift2.png,stimsday2details/new36.png,stimsday2details/n2.png,stimsday2details/cn2.png,stimsday2details/t2.png,stimsday2details/ct2.png,0,11,11,11,,,,,,,,,,,,,0,0,0,0,,,,,,,,,,,,,,,,,,,,,,,,,,,,,,,2.7642760519993317,None,1636.0594020529988,None,1661.3090900459993,None,1670.3089167199996,None,1687.3087645179985,1691.2919823529992,1691.3087101169986,1714.2917594949995,1714.308420554,1718.291738296999,1718.3083761829985,None,1742.3080815609992,None,['1'],[4.518396425999526],1686.3087852729986,1691.2919823529992,"['2', '2']","[82.36485012999947, 2.1018739440005447]",1713.3084442809995,1718.291738296999,,,,,,,,,,,,,,,,,,,,,,,,,,,,,,,,,,,,,,,,,,,,,,,,,,,001,4,2019_Jul_11_1734,viewing,3.1.2,60.00083401117659,
south.png,stims/wedding-2.1a.mp4,stims/wedding-2.1b.mp4,stims/wedding-2.2a.mp4,stims/wedding-2.3b.mp4,stims/wedding-2.4a.mp4,stims/wedding-2.5.mp4,stimsday2details/newegg18.png,stimsday2details/egg2.png,stimsday2details/newperson36.png,stimsday2details/couple2.png,stimsday2details/gift2.png,stimsday2details/new36.png,stimsday2details/n2.png,stimsday2details/cn2.png,stimsday2details/t2.png,stimsday2details/ct2.png,0,11,11,11,,,,,,,,,,,,,,,,,,,,,,,,,,,,,,,,,,,,,,,,,,,,,,,,,,,,,,,,,,,,,,,,,,,,,,,,,3.848999949696008e-05,None,1,0.9356673749989568,1763.2745452899999,None,1763.2745452899999,None,1763.2745452899999,None,1765.2744606999986,None,2,0.9353329399982613,1765.2744606999986,None,1765.2744606999986,None,1767.2744411589993,None,1767.2744411589993,None,2,0.7017261480013985,1767.2744411589993,None,1,1.0349572830000398,1769.274393747999,None,1769.274393747999,None,1769.274393747999,None,1771.274379028,None,1771.274379028,None,1,1.0017203289989993,1771.274379028,None,1773.274355206,None,1773.274355206,None,2,0.8856274570007372,1773.274355206,None,001,4,2019_Jul_11_1734,viewing,3.1.2,60.00083401117659,
