northOrSouth,stimFile1a,stimFile1b,stimFile2,stimFile3,stimFile4,stimFile5,Qeggpainting1,Qeggpainting2,Qcharacter1,Qcharacter2,Qgift1,Qgift2,Qname1,Qname2,Qtheme1,Qtheme2,trials.thisRepN,trials.thisTrialN,trials.thisN,trials.thisIndex,South.thisRepN,South.thisTrialN,South.thisN,South.thisIndex,North.thisRepN,North.thisTrialN,North.thisN,North.thisIndex,noQtrials.thisRepN,noQtrials.thisTrialN,noQtrials.thisN,noQtrials.thisIndex,Qtrials.thisRepN,Qtrials.thisTrialN,Qtrials.thisN,Qtrials.thisIndex,text.started,text.stopped,prep_trigger.keys,prep_trigger.rt,prep_trigger.started,prep_trigger.stopped,waiting.started,waiting.stopped,trigger.keys,trigger.rt,trigger.started,trigger.stopped,southCueImage.started,southCueImage.stopped,northCueImage.started,northCueImage.stopped,trialNoQs.started,trialNoQs.stopped,vid1a.started,vid1a.stopped,vid1b.started,vid1b.stopped,vid2.started,vid2.stopped,vid3.started,vid3.stopped,vid4.started,vid4.stopped,vid5.started,vid5.stopped,ISI2.started,ISI2.stopped,vid1a_q.started,vid1a_q.stopped,vid1b_q.started,vid1b_q.stopped,vid2_q.started,vid2_q.stopped,l2q.started,l2q.stopped,vid3_q.started,vid3_q.stopped,l3q.started,l3q.stopped,vid4_q.started,vid4_q.stopped,vid5_q.started,vid5_q.stopped,key_resp_2.keys,key_resp_2.rt,key_resp_2.started,key_resp_2.stopped,key_resp_3.keys,key_resp_3.rt,key_resp_3.started,key_resp_3.stopped,ISI7.started,ISI7.stopped,nameQresp.keys,nameQresp.rt,nameQresp.started,nameQresp.stopped,nameQ1.started,nameQ1.stopped,nameQ2.started,nameQ2.stopped,eggPainting1.started,eggPainting1.stopped,eggPaintingQresp.keys,eggPaintingQresp.rt,eggPaintingQresp.started,eggPaintingQresp.stopped,eggPainting2.started,eggPainting2.stopped,character1.started,character1.stopped,character2.started,character2.stopped,Qcharacter.keys,Qcharacter.rt,Qcharacter.started,Qcharacter.stopped,themeQresp.keys,themeQresp.rt,themeQresp.started,themeQresp.stopped,themeQ1.started,themeQ1.stopped,themeQ2.started,themeQ2.stopped,gift1.started,gift1.stopped,gift2.started,gift2.stopped,giftQresp.keys,giftQresp.rt,giftQresp.started,giftQresp.stopped,northorsouth1.started,northorsouth1.stopped,northorsouth2.started,northorsouth2.stopped,northOrSouthQ.keys,northOrSouthQ.rt,northOrSouthQ.started,northOrSouthQ.stopped,session,participant,date,expName,psychopyVersion,frameRate,
,,,,,,,,,,,,,,,,,,,,,,,,,,,,,,,,,,,,,8.476642166264355,None,g,0.36601916514337063,8.476642166264355,None,,,,,,,,,,,,,,,,,,,,,,,,,,,,,,,,,,,,,,,,,,,,,,,,,,,,,,,,,,,,,,,,,,,,,,,,,,,,,,,,,,,,,,,,,,,,,,,,,,,,,001,27,2019_Nov_19_1710,viewing,3.1.2,60.0235339324677,
,,,,,,,,,,,,,,,,,,,,,,,,,,,,,,,,,,,,,,,,,,,8.856290854979306,None,equal,16.818665373139083,8.856290854979306,None,,,,,,,,,,,,,,,,,,,,,,,,,,,,,,,,,,,,,,,,,,,,,,,,,,,,,,,,,,,,,,,,,,,,,,,,,,,,,,,,,,,,,,,,,,,,,,,001,27,2019_Nov_19_1710,viewing,3.1.2,60.0235339324677,
south.png,stims/wedding-22.1a.mp4,stims/wedding-22.1b.mp4,stims/wedding-22.2a.mp4,stims/wedding-22.3b.mp4,stims/wedding-22.4a.mp4,stims/wedding-22.5.mp4,stimsday2details/newegg13.png,stimsday2details/egg22.png,stimsday2details/newperson25.png,stimsday2details/couple22.png,stimsday2details/gift22.png,stimsday2details/new25.png,stimsday2details/n22.png,stimsday2details/cn22.png,stimsday2details/t22.png,stimsday2details/ct22.png,0,0,0,0,0,0,0,0,,,,,,,,,,,,,,,,,,,,,,,,,25.7395085580647,None,,,,,,,,,,,,,,,,,,,,,,,,,,,,,,,,,,,,,,,,,,,,,,,,,,,,,,,,,,,,,,,,,,,,,,,,,,,,,,,,,,,,,,,,,,,,,001,27,2019_Nov_19_1710,viewing,3.1.2,60.0235339324677,
south.png,stims/wedding-22.1a.mp4,stims/wedding-22.1b.mp4,stims/wedding-22.2a.mp4,stims/wedding-22.3b.mp4,stims/wedding-22.4a.mp4,stims/wedding-22.5.mp4,stimsday2details/newegg13.png,stimsday2details/egg22.png,stimsday2details/newperson25.png,stimsday2details/couple22.png,stimsday2details/gift22.png,stimsday2details/new25.png,stimsday2details/n22.png,stimsday2details/cn22.png,stimsday2details/t22.png,stimsday2details/ct22.png,0,0,0,0,,,,,0,0,0,0,,,,,,,,,,,,,,,,,,,,,,,None,None,,,,,,,,,,,,,,,,,,,,,,,,,,,,,,,,,,,,,,,,,,,,,,,,,,,,,,,,,,,,,,,,,,,,,,,,,,,,,,,,,,,,,,,,,,,001,27,2019_Nov_19_1710,viewing,3.1.2,60.0235339324677,
south.png,stims/wedding-22.1a.mp4,stims/wedding-22.1b.mp4,stims/wedding-22.2a.mp4,stims/wedding-22.3b.mp4,stims/wedding-22.4a.mp4,stims/wedding-22.5.mp4,stimsday2details/newegg13.png,stimsday2details/egg22.png,stimsday2details/newperson25.png,stimsday2details/couple22.png,stimsday2details/gift22.png,stimsday2details/new25.png,stimsday2details/n22.png,stimsday2details/cn22.png,stimsday2details/t22.png,stimsday2details/ct22.png,0,0,0,0,,,,,,,,,0,0,0,0,,,,,,,,,,,,,,,,,,,,,None,None,None,None,None,None,None,None,None,None,None,None,None,None,,,,,,,,,,,,,,,,,,,,,,,,,,,,,,,,,,,,,,,,,,,,,,,,,,,,,,,,,,,,,,,,,,,,,,,,,,,,,001,27,2019_Nov_19_1710,viewing,3.1.2,60.0235339324677,
south.png,stims/wedding-22.1a.mp4,stims/wedding-22.1b.mp4,stims/wedding-22.2a.mp4,stims/wedding-22.3b.mp4,stims/wedding-22.4a.mp4,stims/wedding-22.5.mp4,stimsday2details/newegg13.png,stimsday2details/egg22.png,stimsday2details/newperson25.png,stimsday2details/couple22.png,stimsday2details/gift22.png,stimsday2details/new25.png,stimsday2details/n22.png,stimsday2details/cn22.png,stimsday2details/t22.png,stimsday2details/ct22.png,0,0,0,0,,,,,,,,,,,,,0,0,0,0,,,,,,,,,,,,,,,,,,,,,,,,,,,,,,,2.866019724868238,None,38.93879438517615,64.0749598601833,64.08850907720625,None,73.08898212201893,90.07178551703691,90.09233740717173,94.0705416770652,94.08771475218236,117.07205747300759,117.08692345628515,121.07527559110895,121.08714412199333,145.07431363733485,145.08756665932015,None,['2'],[2.955407239962369],89.08760257204995,94.0705416770652,['1'],[2.516735663637519],116.08744507934898,121.07527559110895,,,,,,,,,,,,,,,,,,,,,,,,,,,,,,,,,,,,,,,,,,,,,,,,,,,001,27,2019_Nov_19_1710,viewing,3.1.2,60.0235339324677,
south.png,stims/wedding-22.1a.mp4,stims/wedding-22.1b.mp4,stims/wedding-22.2a.mp4,stims/wedding-22.3b.mp4,stims/wedding-22.4a.mp4,stims/wedding-22.5.mp4,stimsday2details/newegg13.png,stimsday2details/egg22.png,stimsday2details/newperson25.png,stimsday2details/couple22.png,stimsday2details/gift22.png,stimsday2details/new25.png,stimsday2details/n22.png,stimsday2details/cn22.png,stimsday2details/t22.png,stimsday2details/ct22.png,0,0,0,0,,,,,,,,,,,,,,,,,,,,,,,,,,,,,,,,,,,,,,,,,,,,,,,,,,,,,,,,,,,,,,,,,,,,,,,,,2.5288201868534088e-05,None,1,1.2340769269503653,165.62054027803242,None,165.62054027803242,None,165.62054027803242,None,167.60404272703454,None,2,0.7514632353559136,167.60404272703454,None,167.60404272703454,None,169.6033350871876,None,169.6033350871876,None,2,0.7393473847769201,169.6033350871876,None,1,1.2849107580259442,171.60321388905868,None,171.60321388905868,None,171.60321388905868,None,173.6034725611098,None,173.6034725611098,None,1,1.0513421399518847,173.6034725611098,None,175.6031528590247,None,175.6031528590247,None,2,0.7181663657538593,175.6031528590247,None,001,27,2019_Nov_19_1710,viewing,3.1.2,60.0235339324677,
north.png,stims/wedding-29.1a.mp4,stims/wedding-29.1b.mp4,stims/wedding-29.2b.mp4,stims/wedding-29.3b.mp4,stims/wedding-29.4b.mp4,stims/wedding-29.5.mp4,stimsday2details/newpainting13.png,stimsday2details/painting29.png,stimsday2details/couple29.png,stimsday2details/newperson26.png,stimsday2details/gift29.png,stimsday2details/new26.png,stimsday2details/n29.png,stimsday2details/cn29.png,stimsday2details/t29.png,stimsday2details/ct29.png,0,1,1,1,0,0,0,0,,,,,,,,,,,,,,,,,,,,,,,,,None,None,,,,,,,,,,,,,,,,,,,,,,,,,,,,,,,,,,,,,,,,,,,,,,,,,,,,,,,,,,,,,,,,,,,,,,,,,,,,,,,,,,,,,,,,,,,,,001,27,2019_Nov_19_1710,viewing,3.1.2,60.0235339324677,
north.png,stims/wedding-29.1a.mp4,stims/wedding-29.1b.mp4,stims/wedding-29.2b.mp4,stims/wedding-29.3b.mp4,stims/wedding-29.4b.mp4,stims/wedding-29.5.mp4,stimsday2details/newpainting13.png,stimsday2details/painting29.png,stimsday2details/couple29.png,stimsday2details/newperson26.png,stimsday2details/gift29.png,stimsday2details/new26.png,stimsday2details/n29.png,stimsday2details/cn29.png,stimsday2details/t29.png,stimsday2details/ct29.png,0,1,1,1,,,,,0,0,0,0,,,,,,,,,,,,,,,,,,,,,,,177.65429550223053,None,,,,,,,,,,,,,,,,,,,,,,,,,,,,,,,,,,,,,,,,,,,,,,,,,,,,,,,,,,,,,,,,,,,,,,,,,,,,,,,,,,,,,,,,,,,001,27,2019_Nov_19_1710,viewing,3.1.2,60.0235339324677,
north.png,stims/wedding-29.1a.mp4,stims/wedding-29.1b.mp4,stims/wedding-29.2b.mp4,stims/wedding-29.3b.mp4,stims/wedding-29.4b.mp4,stims/wedding-29.5.mp4,stimsday2details/newpainting13.png,stimsday2details/painting29.png,stimsday2details/couple29.png,stimsday2details/newperson26.png,stimsday2details/gift29.png,stimsday2details/new26.png,stimsday2details/n29.png,stimsday2details/cn29.png,stimsday2details/t29.png,stimsday2details/ct29.png,0,1,1,1,,,,,,,,,0,0,0,0,,,,,,,,,,,,,,,,,,,,,2.88562993099913,None,187.58617690391839,212.70682209637016,212.72437018621713,None,221.7201388310641,None,238.71879210416228,261.7062861812301,261.71946741314605,None,285.7184929512441,None,,,,,,,,,,,,,,,,,,,,,,,,,,,,,,,,,,,,,,,,,,,,,,,,,,,,,,,,,,,,,,,,,,,,,,,,,,,,,001,27,2019_Nov_19_1710,viewing,3.1.2,60.0235339324677,
north.png,stims/wedding-29.1a.mp4,stims/wedding-29.1b.mp4,stims/wedding-29.2b.mp4,stims/wedding-29.3b.mp4,stims/wedding-29.4b.mp4,stims/wedding-29.5.mp4,stimsday2details/newpainting13.png,stimsday2details/painting29.png,stimsday2details/couple29.png,stimsday2details/newperson26.png,stimsday2details/gift29.png,stimsday2details/new26.png,stimsday2details/n29.png,stimsday2details/cn29.png,stimsday2details/t29.png,stimsday2details/ct29.png,0,1,1,1,,,,,,,,,,,,,0,0,0,0,,,,,,,,,,,,,,,,,,,,,,,,,,,,,,,None,None,None,None,None,None,None,None,None,None,None,None,None,None,None,None,None,None,None,,None,None,None,,None,None,,,,,,,,,,,,,,,,,,,,,,,,,,,,,,,,,,,,,,,,,,,,,,,,,,,001,27,2019_Nov_19_1710,viewing,3.1.2,60.0235339324677,
north.png,stims/wedding-29.1a.mp4,stims/wedding-29.1b.mp4,stims/wedding-29.2b.mp4,stims/wedding-29.3b.mp4,stims/wedding-29.4b.mp4,stims/wedding-29.5.mp4,stimsday2details/newpainting13.png,stimsday2details/painting29.png,stimsday2details/couple29.png,stimsday2details/newperson26.png,stimsday2details/gift29.png,stimsday2details/new26.png,stimsday2details/n29.png,stimsday2details/cn29.png,stimsday2details/t29.png,stimsday2details/ct29.png,0,1,1,1,,,,,,,,,,,,,,,,,,,,,,,,,,,,,,,,,,,,,,,,,,,,,,,,,,,,,,,,,,,,,,,,,,,,,,,,,3.5109929740428925e-05,None,1,0.8713407558389008,308.90192746417597,None,308.90192746417597,None,308.90192746417597,None,310.88980488618836,None,2,0.606348741799593,310.88980488618836,None,310.88980488618836,None,312.89379181619734,None,312.89379181619734,None,1,0.6308729141019285,312.89379181619734,None,1,0.750038671772927,314.8888945551589,None,314.8888945551589,None,314.8888945551589,None,316.88900254201144,None,316.88900254201144,None,1,0.6810223329812288,316.88900254201144,None,318.88591169193387,None,318.88591169193387,None,1,1.0839729942381382,318.88591169193387,None,001,27,2019_Nov_19_1710,viewing,3.1.2,60.0235339324677,
north.png,stims/wedding-34.1a.mp4,stims/wedding-34.1b.mp4,stims/wedding-34.2a.mp4,stims/wedding-34.3a.mp4,stims/wedding-34.4a.mp4,stims/wedding-34.5.mp4,stimsday2details/newegg14.png,stimsday2details/egg34.png,stimsday2details/newperson27.png,stimsday2details/couple34.png,stimsday2details/gift34.png,stimsday2details/new27.png,stimsday2details/cn34.png,stimsday2details/n34.png,stimsday2details/t34.png,stimsday2details/ct34.png,0,2,2,2,0,0,0,0,,,,,,,,,,,,,,,,,,,,,,,,,None,None,,,,,,,,,,,,,,,,,,,,,,,,,,,,,,,,,,,,,,,,,,,,,,,,,,,,,,,,,,,,,,,,,,,,,,,,,,,,,,,,,,,,,,,,,,,,,001,27,2019_Nov_19_1710,viewing,3.1.2,60.0235339324677,
north.png,stims/wedding-34.1a.mp4,stims/wedding-34.1b.mp4,stims/wedding-34.2a.mp4,stims/wedding-34.3a.mp4,stims/wedding-34.4a.mp4,stims/wedding-34.5.mp4,stimsday2details/newegg14.png,stimsday2details/egg34.png,stimsday2details/newperson27.png,stimsday2details/couple34.png,stimsday2details/gift34.png,stimsday2details/new27.png,stimsday2details/cn34.png,stimsday2details/n34.png,stimsday2details/t34.png,stimsday2details/ct34.png,0,2,2,2,,,,,0,0,0,0,,,,,,,,,,,,,,,,,,,,,,,320.9515032619238,None,,,,,,,,,,,,,,,,,,,,,,,,,,,,,,,,,,,,,,,,,,,,,,,,,,,,,,,,,,,,,,,,,,,,,,,,,,,,,,,,,,,,,,,,,,,001,27,2019_Nov_19_1710,viewing,3.1.2,60.0235339324677,
north.png,stims/wedding-34.1a.mp4,stims/wedding-34.1b.mp4,stims/wedding-34.2a.mp4,stims/wedding-34.3a.mp4,stims/wedding-34.4a.mp4,stims/wedding-34.5.mp4,stimsday2details/newegg14.png,stimsday2details/egg34.png,stimsday2details/newperson27.png,stimsday2details/couple34.png,stimsday2details/gift34.png,stimsday2details/new27.png,stimsday2details/cn34.png,stimsday2details/n34.png,stimsday2details/t34.png,stimsday2details/ct34.png,0,2,2,2,,,,,,,,,0,0,0,0,,,,,,,,,,,,,,,,,,,,,2.9319250131957233,None,330.96869107335806,356.01838425407186,356.0349870631471,None,365.03417031513527,None,382.05159266805276,None,405.03363181231543,429.0503029259853,429.06724133109674,None,,,,,,,,,,,,,,,,,,,,,,,,,,,,,,,,,,,,,,,,,,,,,,,,,,,,,,,,,,,,,,,,,,,,,,,,,,,,,001,27,2019_Nov_19_1710,viewing,3.1.2,60.0235339324677,
north.png,stims/wedding-34.1a.mp4,stims/wedding-34.1b.mp4,stims/wedding-34.2a.mp4,stims/wedding-34.3a.mp4,stims/wedding-34.4a.mp4,stims/wedding-34.5.mp4,stimsday2details/newegg14.png,stimsday2details/egg34.png,stimsday2details/newperson27.png,stimsday2details/couple34.png,stimsday2details/gift34.png,stimsday2details/new27.png,stimsday2details/cn34.png,stimsday2details/n34.png,stimsday2details/t34.png,stimsday2details/ct34.png,0,2,2,2,,,,,,,,,,,,,0,0,0,0,,,,,,,,,,,,,,,,,,,,,,,,,,,,,,,None,None,None,None,None,None,None,None,None,None,None,None,None,None,None,None,None,None,None,,None,None,None,,None,None,,,,,,,,,,,,,,,,,,,,,,,,,,,,,,,,,,,,,,,,,,,,,,,,,,,001,27,2019_Nov_19_1710,viewing,3.1.2,60.0235339324677,
north.png,stims/wedding-34.1a.mp4,stims/wedding-34.1b.mp4,stims/wedding-34.2a.mp4,stims/wedding-34.3a.mp4,stims/wedding-34.4a.mp4,stims/wedding-34.5.mp4,stimsday2details/newegg14.png,stimsday2details/egg34.png,stimsday2details/newperson27.png,stimsday2details/couple34.png,stimsday2details/gift34.png,stimsday2details/new27.png,stimsday2details/cn34.png,stimsday2details/n34.png,stimsday2details/t34.png,stimsday2details/ct34.png,0,2,2,2,,,,,,,,,,,,,,,,,,,,,,,,,,,,,,,,,,,,,,,,,,,,,,,,,,,,,,,,,,,,,,,,,,,,,,,,,4.021311178803444e-05,None,2,1.0248315171338618,452.46625333093107,None,452.46625333093107,None,452.46625333093107,None,454.46635542903095,None,2,0.969690749887377,454.46635542903095,None,454.46635542903095,None,456.4716210933402,None,456.4716210933402,None,2,0.6808177167549729,456.4716210933402,None,1,1.37386927427724,458.4661244279705,None,458.4661244279705,None,458.4661244279705,None,460.45431226398796,None,460.45431226398796,None,1,0.8896862813271582,460.45431226398796,None,462.45407979004085,None,462.45407979004085,None,1,0.8681768947280943,462.45407979004085,None,001,27,2019_Nov_19_1710,viewing,3.1.2,60.0235339324677,
south.png,stims/wedding-23.1a.mp4,stims/wedding-23.1b.mp4,stims/wedding-23.2b.mp4,stims/wedding-23.3a.mp4,stims/wedding-23.4b.mp4,stims/wedding-23.5.mp4,stimsday2details/painting23.png,stimsday2details/newpainting14.png,stimsday2details/couple23.png,stimsday2details/newperson28.png,stimsday2details/new28.png,stimsday2details/gift23.png,stimsday2details/cn23.png,stimsday2details/n23.png,stimsday2details/t23.png,stimsday2details/ct23.png,0,3,3,3,0,0,0,0,,,,,,,,,,,,,,,,,,,,,,,,,464.45385944703594,None,,,,,,,,,,,,,,,,,,,,,,,,,,,,,,,,,,,,,,,,,,,,,,,,,,,,,,,,,,,,,,,,,,,,,,,,,,,,,,,,,,,,,,,,,,,,,001,27,2019_Nov_19_1710,viewing,3.1.2,60.0235339324677,
south.png,stims/wedding-23.1a.mp4,stims/wedding-23.1b.mp4,stims/wedding-23.2b.mp4,stims/wedding-23.3a.mp4,stims/wedding-23.4b.mp4,stims/wedding-23.5.mp4,stimsday2details/painting23.png,stimsday2details/newpainting14.png,stimsday2details/couple23.png,stimsday2details/newperson28.png,stimsday2details/new28.png,stimsday2details/gift23.png,stimsday2details/cn23.png,stimsday2details/n23.png,stimsday2details/t23.png,stimsday2details/ct23.png,0,3,3,3,,,,,0,0,0,0,,,,,,,,,,,,,,,,,,,,,,,None,None,,,,,,,,,,,,,,,,,,,,,,,,,,,,,,,,,,,,,,,,,,,,,,,,,,,,,,,,,,,,,,,,,,,,,,,,,,,,,,,,,,,,,,,,,,,001,27,2019_Nov_19_1710,viewing,3.1.2,60.0235339324677,
south.png,stims/wedding-23.1a.mp4,stims/wedding-23.1b.mp4,stims/wedding-23.2b.mp4,stims/wedding-23.3a.mp4,stims/wedding-23.4b.mp4,stims/wedding-23.5.mp4,stimsday2details/painting23.png,stimsday2details/newpainting14.png,stimsday2details/couple23.png,stimsday2details/newperson28.png,stimsday2details/new28.png,stimsday2details/gift23.png,stimsday2details/cn23.png,stimsday2details/n23.png,stimsday2details/t23.png,stimsday2details/ct23.png,0,3,3,3,,,,,,,,,0,0,0,0,,,,,,,,,,,,,,,,,,,,,2.8735470310784876,None,474.51664866227657,499.63630120037124,499.65026759309694,None,508.6496373540722,None,525.6484696692787,548.6326852450147,548.6492901821621,None,572.6479775942862,None,,,,,,,,,,,,,,,,,,,,,,,,,,,,,,,,,,,,,,,,,,,,,,,,,,,,,,,,,,,,,,,,,,,,,,,,,,,,,001,27,2019_Nov_19_1710,viewing,3.1.2,60.0235339324677,
south.png,stims/wedding-23.1a.mp4,stims/wedding-23.1b.mp4,stims/wedding-23.2b.mp4,stims/wedding-23.3a.mp4,stims/wedding-23.4b.mp4,stims/wedding-23.5.mp4,stimsday2details/painting23.png,stimsday2details/newpainting14.png,stimsday2details/couple23.png,stimsday2details/newperson28.png,stimsday2details/new28.png,stimsday2details/gift23.png,stimsday2details/cn23.png,stimsday2details/n23.png,stimsday2details/t23.png,stimsday2details/ct23.png,0,3,3,3,,,,,,,,,,,,,0,0,0,0,,,,,,,,,,,,,,,,,,,,,,,,,,,,,,,None,None,None,None,None,None,None,None,None,None,None,None,None,None,None,None,None,None,None,,None,None,None,,None,None,,,,,,,,,,,,,,,,,,,,,,,,,,,,,,,,,,,,,,,,,,,,,,,,,,,001,27,2019_Nov_19_1710,viewing,3.1.2,60.0235339324677,
south.png,stims/wedding-23.1a.mp4,stims/wedding-23.1b.mp4,stims/wedding-23.2b.mp4,stims/wedding-23.3a.mp4,stims/wedding-23.4b.mp4,stims/wedding-23.5.mp4,stimsday2details/painting23.png,stimsday2details/newpainting14.png,stimsday2details/couple23.png,stimsday2details/newperson28.png,stimsday2details/new28.png,stimsday2details/gift23.png,stimsday2details/cn23.png,stimsday2details/n23.png,stimsday2details/t23.png,stimsday2details/ct23.png,0,3,3,3,,,,,,,,,,,,,,,,,,,,,,,,,,,,,,,,,,,,,,,,,,,,,,,,,,,,,,,,,,,,,,,,,,,,,,,,,3.959890455007553e-05,None,2,1.1517108790576458,596.8148077023216,None,596.8148077023216,None,596.8148077023216,None,598.8203676999547,None,1,0.6680147503502667,598.8203676999547,None,598.8203676999547,None,600.8187572411261,None,600.8187572411261,None,1,0.8485263516195118,600.8187572411261,None,1,0.8364377818070352,602.8143095881678,None,602.8143095881678,None,602.8143095881678,None,604.8155669341795,None,604.8155669341795,None,2,1.3005671720020473,604.8155669341795,None,606.8143983180635,None,606.8143983180635,None,2,0.9903385918587446,606.8143983180635,None,001,27,2019_Nov_19_1710,viewing,3.1.2,60.0235339324677,
south.png,stims/wedding-20.1a.mp4,stims/wedding-20.1b.mp4,stims/wedding-20.2a.mp4,stims/wedding-20.3b.mp4,stims/wedding-20.4a.mp4,stims/wedding-20.5.mp4,stimsday2details/egg20.png,stimsday2details/newegg15.png,stimsday2details/newperson29.png,stimsday2details/couple20.png,stimsday2details/new29.png,stimsday2details/gift20.png,stimsday2details/n20.png,stimsday2details/cn20.png,stimsday2details/ct20.png,stimsday2details/t20.png,0,4,4,4,0,0,0,0,,,,,,,,,,,,,,,,,,,,,,,,,608.8141362373717,None,,,,,,,,,,,,,,,,,,,,,,,,,,,,,,,,,,,,,,,,,,,,,,,,,,,,,,,,,,,,,,,,,,,,,,,,,,,,,,,,,,,,,,,,,,,,,001,27,2019_Nov_19_1710,viewing,3.1.2,60.0235339324677,
south.png,stims/wedding-20.1a.mp4,stims/wedding-20.1b.mp4,stims/wedding-20.2a.mp4,stims/wedding-20.3b.mp4,stims/wedding-20.4a.mp4,stims/wedding-20.5.mp4,stimsday2details/egg20.png,stimsday2details/newegg15.png,stimsday2details/newperson29.png,stimsday2details/couple20.png,stimsday2details/new29.png,stimsday2details/gift20.png,stimsday2details/n20.png,stimsday2details/cn20.png,stimsday2details/ct20.png,stimsday2details/t20.png,0,4,4,4,,,,,0,0,0,0,,,,,,,,,,,,,,,,,,,,,,,None,None,,,,,,,,,,,,,,,,,,,,,,,,,,,,,,,,,,,,,,,,,,,,,,,,,,,,,,,,,,,,,,,,,,,,,,,,,,,,,,,,,,,,,,,,,,,001,27,2019_Nov_19_1710,viewing,3.1.2,60.0235339324677,
south.png,stims/wedding-20.1a.mp4,stims/wedding-20.1b.mp4,stims/wedding-20.2a.mp4,stims/wedding-20.3b.mp4,stims/wedding-20.4a.mp4,stims/wedding-20.5.mp4,stimsday2details/egg20.png,stimsday2details/newegg15.png,stimsday2details/newperson29.png,stimsday2details/couple20.png,stimsday2details/new29.png,stimsday2details/gift20.png,stimsday2details/n20.png,stimsday2details/cn20.png,stimsday2details/ct20.png,stimsday2details/t20.png,0,4,4,4,,,,,,,,,0,0,0,0,,,,,,,,,,,,,,,,,,,,,2.9269145890139043,None,618.9643038930371,644.0479239020497,644.0479239020497,None,653.0486767343245,None,670.0468986020423,693.0475589851849,693.0475589851849,717.0509878583252,717.063015351072,None,,,,,,,,,,,,,,,,,,,,,,,,,,,,,,,,,,,,,,,,,,,,,,,,,,,,,,,,,,,,,,,,,,,,,,,,,,,,,001,27,2019_Nov_19_1710,viewing,3.1.2,60.0235339324677,
south.png,stims/wedding-20.1a.mp4,stims/wedding-20.1b.mp4,stims/wedding-20.2a.mp4,stims/wedding-20.3b.mp4,stims/wedding-20.4a.mp4,stims/wedding-20.5.mp4,stimsday2details/egg20.png,stimsday2details/newegg15.png,stimsday2details/newperson29.png,stimsday2details/couple20.png,stimsday2details/new29.png,stimsday2details/gift20.png,stimsday2details/n20.png,stimsday2details/cn20.png,stimsday2details/ct20.png,stimsday2details/t20.png,0,4,4,4,,,,,,,,,,,,,0,0,0,0,,,,,,,,,,,,,,,,,,,,,,,,,,,,,,,None,None,None,None,None,None,None,None,None,None,None,None,None,None,None,None,None,None,None,,None,None,None,,None,None,,,,,,,,,,,,,,,,,,,,,,,,,,,,,,,,,,,,,,,,,,,,,,,,,,,001,27,2019_Nov_19_1710,viewing,3.1.2,60.0235339324677,
south.png,stims/wedding-20.1a.mp4,stims/wedding-20.1b.mp4,stims/wedding-20.2a.mp4,stims/wedding-20.3b.mp4,stims/wedding-20.4a.mp4,stims/wedding-20.5.mp4,stimsday2details/egg20.png,stimsday2details/newegg15.png,stimsday2details/newperson29.png,stimsday2details/couple20.png,stimsday2details/new29.png,stimsday2details/gift20.png,stimsday2details/n20.png,stimsday2details/cn20.png,stimsday2details/ct20.png,stimsday2details/t20.png,0,4,4,4,,,,,,,,,,,,,,,,,,,,,,,,,,,,,,,,,,,,,,,,,,,,,,,,,,,,,,,,,,,,,,,,,,,,,,,,,3.5727862268686295e-05,None,1,0.9966939999721944,739.8522079200484,None,739.8522079200484,None,739.8522079200484,None,741.851537972223,None,1,0.9496524417772889,741.851537972223,None,741.851537972223,None,743.8517123963684,None,743.8517123963684,None,2,0.6678932411596179,743.8517123963684,None,2,0.8977357181720436,745.8507834891789,None,745.8507834891789,None,745.8507834891789,None,747.8458940689452,None,747.8458940689452,None,2,0.7695081969723105,747.8458940689452,None,749.846069981344,None,749.846069981344,None,1,1.090134551282972,749.846069981344,None,001,27,2019_Nov_19_1710,viewing,3.1.2,60.0235339324677,
north.png,stims/wedding-1.1a.mp4,stims/wedding-1.1b.mp4,stims/wedding-1.2b.mp4,stims/wedding-1.3b.mp4,stims/wedding-1.4b.mp4,stims/wedding-1.5.mp4,stimsday2details/painting1.png,stimsday2details/newpainting15.png,stimsday2details/couple1.png,stimsday2details/newperson30.png,stimsday2details/gift1.png,stimsday2details/new30.png,stimsday2details/cn1.png,stimsday2details/n1.png,stimsday2details/ct1.png,stimsday2details/t1.png,0,5,5,5,0,0,0,0,,,,,,,,,,,,,,,,,,,,,,,,,None,None,,,,,,,,,,,,,,,,,,,,,,,,,,,,,,,,,,,,,,,,,,,,,,,,,,,,,,,,,,,,,,,,,,,,,,,,,,,,,,,,,,,,,,,,,,,,,001,27,2019_Nov_19_1710,viewing,3.1.2,60.0235339324677,
north.png,stims/wedding-1.1a.mp4,stims/wedding-1.1b.mp4,stims/wedding-1.2b.mp4,stims/wedding-1.3b.mp4,stims/wedding-1.4b.mp4,stims/wedding-1.5.mp4,stimsday2details/painting1.png,stimsday2details/newpainting15.png,stimsday2details/couple1.png,stimsday2details/newperson30.png,stimsday2details/gift1.png,stimsday2details/new30.png,stimsday2details/cn1.png,stimsday2details/n1.png,stimsday2details/ct1.png,stimsday2details/t1.png,0,5,5,5,,,,,0,0,0,0,,,,,,,,,,,,,,,,,,,,,,,751.98003114108,None,,,,,,,,,,,,,,,,,,,,,,,,,,,,,,,,,,,,,,,,,,,,,,,,,,,,,,,,,,,,,,,,,,,,,,,,,,,,,,,,,,,,,,,,,,,001,27,2019_Nov_19_1710,viewing,3.1.2,60.0235339324677,
north.png,stims/wedding-1.1a.mp4,stims/wedding-1.1b.mp4,stims/wedding-1.2b.mp4,stims/wedding-1.3b.mp4,stims/wedding-1.4b.mp4,stims/wedding-1.5.mp4,stimsday2details/painting1.png,stimsday2details/newpainting15.png,stimsday2details/couple1.png,stimsday2details/newperson30.png,stimsday2details/gift1.png,stimsday2details/new30.png,stimsday2details/cn1.png,stimsday2details/n1.png,stimsday2details/ct1.png,stimsday2details/t1.png,0,5,5,5,,,,,,,,,0,0,0,0,,,,,,,,,,,,,,,,,,,,,2.9369095326401293,None,762.0632173442282,787.1121117020957,787.1293082209304,None,796.1295105512254,None,813.1340189902112,836.1161335702054,836.1293103862554,860.1123447660357,860.1288049160503,None,,,,,,,,,,,,,,,,,,,,,,,,,,,,,,,,,,,,,,,,,,,,,,,,,,,,,,,,,,,,,,,,,,,,,,,,,,,,,001,27,2019_Nov_19_1710,viewing,3.1.2,60.0235339324677,
north.png,stims/wedding-1.1a.mp4,stims/wedding-1.1b.mp4,stims/wedding-1.2b.mp4,stims/wedding-1.3b.mp4,stims/wedding-1.4b.mp4,stims/wedding-1.5.mp4,stimsday2details/painting1.png,stimsday2details/newpainting15.png,stimsday2details/couple1.png,stimsday2details/newperson30.png,stimsday2details/gift1.png,stimsday2details/new30.png,stimsday2details/cn1.png,stimsday2details/n1.png,stimsday2details/ct1.png,stimsday2details/t1.png,0,5,5,5,,,,,,,,,,,,,0,0,0,0,,,,,,,,,,,,,,,,,,,,,,,,,,,,,,,None,None,None,None,None,None,None,None,None,None,None,None,None,None,None,None,None,None,None,,None,None,None,,None,None,,,,,,,,,,,,,,,,,,,,,,,,,,,,,,,,,,,,,,,,,,,,,,,,,,,001,27,2019_Nov_19_1710,viewing,3.1.2,60.0235339324677,
north.png,stims/wedding-1.1a.mp4,stims/wedding-1.1b.mp4,stims/wedding-1.2b.mp4,stims/wedding-1.3b.mp4,stims/wedding-1.4b.mp4,stims/wedding-1.5.mp4,stimsday2details/painting1.png,stimsday2details/newpainting15.png,stimsday2details/couple1.png,stimsday2details/newperson30.png,stimsday2details/gift1.png,stimsday2details/new30.png,stimsday2details/cn1.png,stimsday2details/n1.png,stimsday2details/ct1.png,stimsday2details/t1.png,0,5,5,5,,,,,,,,,,,,,,,,,,,,,,,,,,,,,,,,,,,,,,,,,,,,,,,,,,,,,,,,,,,,,,,,,,,,,,,,,3.920728340744972e-05,None,None,,883.8112043710425,None,883.8112043710425,None,883.8112043710425,None,885.7985323541798,None,None,,885.7985323541798,None,885.7985323541798,None,887.7939573731273,None,887.7939573731273,None,None,,887.7939573731273,None,None,,889.7947357441299,None,889.7947357441299,None,889.7947357441299,None,891.7947686691768,None,891.7947686691768,None,None,,891.7947686691768,None,893.7947623711079,None,893.7947623711079,None,None,,893.7947623711079,None,001,27,2019_Nov_19_1710,viewing,3.1.2,60.0235339324677,
north.png,stims/wedding-2.1a.mp4,stims/wedding-2.1b.mp4,stims/wedding-2.2b.mp4,stims/wedding-2.3b.mp4,stims/wedding-2.4b.mp4,stims/wedding-2.5.mp4,stimsday2details/newpainting16.png,stimsday2details/painting2.png,stimsday2details/newperson31.png,stimsday2details/couple2.png,stimsday2details/gift2.png,stimsday2details/new31.png,stimsday2details/n2.png,stimsday2details/cn2.png,stimsday2details/t2.png,stimsday2details/ct2.png,0,6,6,6,0,0,0,0,,,,,,,,,,,,,,,,,,,,,,,,,None,None,,,,,,,,,,,,,,,,,,,,,,,,,,,,,,,,,,,,,,,,,,,,,,,,,,,,,,,,,,,,,,,,,,,,,,,,,,,,,,,,,,,,,,,,,,,,,001,27,2019_Nov_19_1710,viewing,3.1.2,60.0235339324677,
north.png,stims/wedding-2.1a.mp4,stims/wedding-2.1b.mp4,stims/wedding-2.2b.mp4,stims/wedding-2.3b.mp4,stims/wedding-2.4b.mp4,stims/wedding-2.5.mp4,stimsday2details/newpainting16.png,stimsday2details/painting2.png,stimsday2details/newperson31.png,stimsday2details/couple2.png,stimsday2details/gift2.png,stimsday2details/new31.png,stimsday2details/n2.png,stimsday2details/cn2.png,stimsday2details/t2.png,stimsday2details/ct2.png,0,6,6,6,,,,,0,0,0,0,,,,,,,,,,,,,,,,,,,,,,,895.9446313902736,None,,,,,,,,,,,,,,,,,,,,,,,,,,,,,,,,,,,,,,,,,,,,,,,,,,,,,,,,,,,,,,,,,,,,,,,,,,,,,,,,,,,,,,,,,,,001,27,2019_Nov_19_1710,viewing,3.1.2,60.0235339324677,
north.png,stims/wedding-2.1a.mp4,stims/wedding-2.1b.mp4,stims/wedding-2.2b.mp4,stims/wedding-2.3b.mp4,stims/wedding-2.4b.mp4,stims/wedding-2.5.mp4,stimsday2details/newpainting16.png,stimsday2details/painting2.png,stimsday2details/newperson31.png,stimsday2details/couple2.png,stimsday2details/gift2.png,stimsday2details/new31.png,stimsday2details/n2.png,stimsday2details/cn2.png,stimsday2details/t2.png,stimsday2details/ct2.png,0,6,6,6,,,,,,,,,0,0,0,0,,,,,,,,,,,,,,,,,,,,,2.9315118826925755,None,906.0442800410092,None,931.1114601362497,None,940.1114854011685,None,957.1271654879674,980.1131681613624,980.1131681613624,1004.1090944181196,1004.1264521819539,None,,,,,,,,,,,,,,,,,,,,,,,,,,,,,,,,,,,,,,,,,,,,,,,,,,,,,,,,,,,,,,,,,,,,,,,,,,,,,001,27,2019_Nov_19_1710,viewing,3.1.2,60.0235339324677,
north.png,stims/wedding-2.1a.mp4,stims/wedding-2.1b.mp4,stims/wedding-2.2b.mp4,stims/wedding-2.3b.mp4,stims/wedding-2.4b.mp4,stims/wedding-2.5.mp4,stimsday2details/newpainting16.png,stimsday2details/painting2.png,stimsday2details/newperson31.png,stimsday2details/couple2.png,stimsday2details/gift2.png,stimsday2details/new31.png,stimsday2details/n2.png,stimsday2details/cn2.png,stimsday2details/t2.png,stimsday2details/ct2.png,0,6,6,6,,,,,,,,,,,,,0,0,0,0,,,,,,,,,,,,,,,,,,,,,,,,,,,,,,,None,None,None,None,None,None,None,None,None,None,None,None,None,None,None,None,None,None,None,,None,None,None,,None,None,,,,,,,,,,,,,,,,,,,,,,,,,,,,,,,,,,,,,,,,,,,,,,,,,,,001,27,2019_Nov_19_1710,viewing,3.1.2,60.0235339324677,
north.png,stims/wedding-2.1a.mp4,stims/wedding-2.1b.mp4,stims/wedding-2.2b.mp4,stims/wedding-2.3b.mp4,stims/wedding-2.4b.mp4,stims/wedding-2.5.mp4,stimsday2details/newpainting16.png,stimsday2details/painting2.png,stimsday2details/newperson31.png,stimsday2details/couple2.png,stimsday2details/gift2.png,stimsday2details/new31.png,stimsday2details/n2.png,stimsday2details/cn2.png,stimsday2details/t2.png,stimsday2details/ct2.png,0,6,6,6,,,,,,,,,,,,,,,,,,,,,,,,,,,,,,,,,,,,,,,,,,,,,,,,,,,,,,,,,,,,,,,,,,,,,,,,,3.41339036822319e-05,None,None,,1028.2755951043218,None,1028.2755951043218,None,1028.2755951043218,None,1030.2594462530687,None,None,,1030.2594462530687,None,1030.2594462530687,None,1032.2588006681763,None,1032.2588006681763,None,None,,1032.2588006681763,None,None,,1034.2591877211817,None,1034.2591877211817,None,1034.2591877211817,None,1036.259893100243,None,1036.259893100243,None,None,,1036.259893100243,None,1038.2475085970946,None,1038.2475085970946,None,None,,1038.2475085970946,None,001,27,2019_Nov_19_1710,viewing,3.1.2,60.0235339324677,
south.png,stims/wedding-6.1a.mp4,stims/wedding-6.1b.mp4,stims/wedding-6.2a.mp4,stims/wedding-6.3b.mp4,stims/wedding-6.4a.mp4,stims/wedding-6.5.mp4,stimsday2details/egg6.png,stimsday2details/newegg16.png,stimsday2details/couple6.png,stimsday2details/newperson32.png,stimsday2details/new32.png,stimsday2details/gift6.png,stimsday2details/n6.png,stimsday2details/cn6.png,stimsday2details/t6.png,stimsday2details/ct6.png,0,7,7,7,0,0,0,0,,,,,,,,,,,,,,,,,,,,,,,,,1040.2477977592498,None,,,,,,,,,,,,,,,,,,,,,,,,,,,,,,,,,,,,,,,,,,,,,,,,,,,,,,,,,,,,,,,,,,,,,,,,,,,,,,,,,,,,,,,,,,,,,001,27,2019_Nov_19_1710,viewing,3.1.2,60.0235339324677,
south.png,stims/wedding-6.1a.mp4,stims/wedding-6.1b.mp4,stims/wedding-6.2a.mp4,stims/wedding-6.3b.mp4,stims/wedding-6.4a.mp4,stims/wedding-6.5.mp4,stimsday2details/egg6.png,stimsday2details/newegg16.png,stimsday2details/couple6.png,stimsday2details/newperson32.png,stimsday2details/new32.png,stimsday2details/gift6.png,stimsday2details/n6.png,stimsday2details/cn6.png,stimsday2details/t6.png,stimsday2details/ct6.png,0,7,7,7,,,,,0,0,0,0,,,,,,,,,,,,,,,,,,,,,,,None,None,,,,,,,,,,,,,,,,,,,,,,,,,,,,,,,,,,,,,,,,,,,,,,,,,,,,,,,,,,,,,,,,,,,,,,,,,,,,,,,,,,,,,,,,,,,001,27,2019_Nov_19_1710,viewing,3.1.2,60.0235339324677,
south.png,stims/wedding-6.1a.mp4,stims/wedding-6.1b.mp4,stims/wedding-6.2a.mp4,stims/wedding-6.3b.mp4,stims/wedding-6.4a.mp4,stims/wedding-6.5.mp4,stimsday2details/egg6.png,stimsday2details/newegg16.png,stimsday2details/couple6.png,stimsday2details/newperson32.png,stimsday2details/new32.png,stimsday2details/gift6.png,stimsday2details/n6.png,stimsday2details/cn6.png,stimsday2details/t6.png,stimsday2details/ct6.png,0,7,7,7,,,,,,,,,0,0,0,0,,,,,,,,,,,,,,,,,,,,,2.9727352829650044,None,1050.5752992439084,1075.5927217290737,1075.6085143829696,None,1084.609506926965,1101.608831862919,1101.608831862919,1124.6077658361755,1124.6077658361755,1148.596150683239,1148.6122932941653,None,,,,,,,,,,,,,,,,,,,,,,,,,,,,,,,,,,,,,,,,,,,,,,,,,,,,,,,,,,,,,,,,,,,,,,,,,,,,,001,27,2019_Nov_19_1710,viewing,3.1.2,60.0235339324677,
south.png,stims/wedding-6.1a.mp4,stims/wedding-6.1b.mp4,stims/wedding-6.2a.mp4,stims/wedding-6.3b.mp4,stims/wedding-6.4a.mp4,stims/wedding-6.5.mp4,stimsday2details/egg6.png,stimsday2details/newegg16.png,stimsday2details/couple6.png,stimsday2details/newperson32.png,stimsday2details/new32.png,stimsday2details/gift6.png,stimsday2details/n6.png,stimsday2details/cn6.png,stimsday2details/t6.png,stimsday2details/ct6.png,0,7,7,7,,,,,,,,,,,,,0,0,0,0,,,,,,,,,,,,,,,,,,,,,,,,,,,,,,,None,None,None,None,None,None,None,None,None,None,None,None,None,None,None,None,None,None,None,,None,None,None,,None,None,,,,,,,,,,,,,,,,,,,,,,,,,,,,,,,,,,,,,,,,,,,,,,,,,,,001,27,2019_Nov_19_1710,viewing,3.1.2,60.0235339324677,
south.png,stims/wedding-6.1a.mp4,stims/wedding-6.1b.mp4,stims/wedding-6.2a.mp4,stims/wedding-6.3b.mp4,stims/wedding-6.4a.mp4,stims/wedding-6.5.mp4,stimsday2details/egg6.png,stimsday2details/newegg16.png,stimsday2details/couple6.png,stimsday2details/newperson32.png,stimsday2details/new32.png,stimsday2details/gift6.png,stimsday2details/n6.png,stimsday2details/cn6.png,stimsday2details/t6.png,stimsday2details/ct6.png,0,7,7,7,,,,,,,,,,,,,,,,,,,,,,,,,,,,,,,,,,,,,,,,,,,,,,,,,,,,,,,,,,,,,,,,,,,,,,,,,3.8312748074531555e-05,None,None,,1172.6309566991404,None,1172.6309566991404,None,1172.6309566991404,None,1174.6244805483148,None,None,,1174.6244805483148,None,1174.6244805483148,None,1176.624947377015,None,1176.624947377015,None,None,,1176.624947377015,None,None,,1178.6247726683505,None,1178.6247726683505,None,1178.6247726683505,None,1180.6244485201314,None,1180.6244485201314,None,None,,1180.6244485201314,None,1182.6125971651636,None,1182.6125971651636,None,None,,1182.6125971651636,None,001,27,2019_Nov_19_1710,viewing,3.1.2,60.0235339324677,
south.png,stims/wedding-17.1a.mp4,stims/wedding-17.1b.mp4,stims/wedding-17.2b.mp4,stims/wedding-17.3a.mp4,stims/wedding-17.4b.mp4,stims/wedding-17.5.mp4,stimsday2details/newpainting17.png,stimsday2details/painting17.png,stimsday2details/newperson33.png,stimsday2details/couple17.png,stimsday2details/gift17.png,stimsday2details/new33.png,stimsday2details/n17.png,stimsday2details/cn17.png,stimsday2details/t17.png,stimsday2details/ct17.png,0,8,8,8,0,0,0,0,,,,,,,,,,,,,,,,,,,,,,,,,1184.6123933703639,None,,,,,,,,,,,,,,,,,,,,,,,,,,,,,,,,,,,,,,,,,,,,,,,,,,,,,,,,,,,,,,,,,,,,,,,,,,,,,,,,,,,,,,,,,,,,,001,27,2019_Nov_19_1710,viewing,3.1.2,60.0235339324677,
south.png,stims/wedding-17.1a.mp4,stims/wedding-17.1b.mp4,stims/wedding-17.2b.mp4,stims/wedding-17.3a.mp4,stims/wedding-17.4b.mp4,stims/wedding-17.5.mp4,stimsday2details/newpainting17.png,stimsday2details/painting17.png,stimsday2details/newperson33.png,stimsday2details/couple17.png,stimsday2details/gift17.png,stimsday2details/new33.png,stimsday2details/n17.png,stimsday2details/cn17.png,stimsday2details/t17.png,stimsday2details/ct17.png,0,8,8,8,,,,,0,0,0,0,,,,,,,,,,,,,,,,,,,,,,,None,None,,,,,,,,,,,,,,,,,,,,,,,,,,,,,,,,,,,,,,,,,,,,,,,,,,,,,,,,,,,,,,,,,,,,,,,,,,,,,,,,,,,,,,,,,,,001,27,2019_Nov_19_1710,viewing,3.1.2,60.0235339324677,
south.png,stims/wedding-17.1a.mp4,stims/wedding-17.1b.mp4,stims/wedding-17.2b.mp4,stims/wedding-17.3a.mp4,stims/wedding-17.4b.mp4,stims/wedding-17.5.mp4,stimsday2details/newpainting17.png,stimsday2details/painting17.png,stimsday2details/newperson33.png,stimsday2details/couple17.png,stimsday2details/gift17.png,stimsday2details/new33.png,stimsday2details/n17.png,stimsday2details/cn17.png,stimsday2details/t17.png,stimsday2details/ct17.png,0,8,8,8,,,,,,,,,0,0,0,0,,,,,,,,,,,,,,,,,,,,,2.896915873978287,None,1194.9244428910315,None,1220.0231375209987,None,1229.0286275139078,None,1246.0265262410976,None,1269.0236271480098,None,1293.022814377211,None,,,,,,,,,,,,,,,,,,,,,,,,,,,,,,,,,,,,,,,,,,,,,,,,,,,,,,,,,,,,,,,,,,,,,,,,,,,,,001,27,2019_Nov_19_1710,viewing,3.1.2,60.0235339324677,
south.png,stims/wedding-17.1a.mp4,stims/wedding-17.1b.mp4,stims/wedding-17.2b.mp4,stims/wedding-17.3a.mp4,stims/wedding-17.4b.mp4,stims/wedding-17.5.mp4,stimsday2details/newpainting17.png,stimsday2details/painting17.png,stimsday2details/newperson33.png,stimsday2details/couple17.png,stimsday2details/gift17.png,stimsday2details/new33.png,stimsday2details/n17.png,stimsday2details/cn17.png,stimsday2details/t17.png,stimsday2details/ct17.png,0,8,8,8,,,,,,,,,,,,,0,0,0,0,,,,,,,,,,,,,,,,,,,,,,,,,,,,,,,None,None,None,None,None,None,None,None,None,None,None,None,None,None,None,None,None,None,None,,None,None,None,,None,None,,,,,,,,,,,,,,,,,,,,,,,,,,,,,,,,,,,,,,,,,,,,,,,,,,,001,27,2019_Nov_19_1710,viewing,3.1.2,60.0235339324677,
south.png,stims/wedding-17.1a.mp4,stims/wedding-17.1b.mp4,stims/wedding-17.2b.mp4,stims/wedding-17.3a.mp4,stims/wedding-17.4b.mp4,stims/wedding-17.5.mp4,stimsday2details/newpainting17.png,stimsday2details/painting17.png,stimsday2details/newperson33.png,stimsday2details/couple17.png,stimsday2details/gift17.png,stimsday2details/new33.png,stimsday2details/n17.png,stimsday2details/cn17.png,stimsday2details/t17.png,stimsday2details/ct17.png,0,8,8,8,,,,,,,,,,,,,,,,,,,,,,,,,,,,,,,,,,,,,,,,,,,,,,,,,,,,,,,,,,,,,,,,,,,,,,,,,3.5964883863925934e-05,None,None,,1316.8720884821378,None,1316.8720884821378,None,1316.8720884821378,None,1318.8728536772542,None,None,,1318.8728536772542,None,1318.8728536772542,None,1320.8731682989746,None,1320.8731682989746,None,None,,1320.8731682989746,None,None,,1322.8766152192838,None,1322.8766152192838,None,1322.8766152192838,None,1324.8767180382274,None,1324.8767180382274,None,None,,1324.8767180382274,None,1326.8768241130747,None,1326.8768241130747,None,None,,1326.8768241130747,None,001,27,2019_Nov_19_1710,viewing,3.1.2,60.0235339324677,
north.png,stims/wedding-28.1a.mp4,stims/wedding-28.1b.mp4,stims/wedding-28.2a.mp4,stims/wedding-28.3a.mp4,stims/wedding-28.4a.mp4,stims/wedding-28.5.mp4,stimsday2details/egg28.png,stimsday2details/newegg17.png,stimsday2details/newperson34.png,stimsday2details/couple28.png,stimsday2details/gift28.png,stimsday2details/new34.png,stimsday2details/n28.png,stimsday2details/cn28.png,stimsday2details/ct28.png,stimsday2details/t28.png,0,9,9,9,0,0,0,0,,,,,,,,,,,,,,,,,,,,,,,,,None,None,,,,,,,,,,,,,,,,,,,,,,,,,,,,,,,,,,,,,,,,,,,,,,,,,,,,,,,,,,,,,,,,,,,,,,,,,,,,,,,,,,,,,,,,,,,,,001,27,2019_Nov_19_1710,viewing,3.1.2,60.0235339324677,
north.png,stims/wedding-28.1a.mp4,stims/wedding-28.1b.mp4,stims/wedding-28.2a.mp4,stims/wedding-28.3a.mp4,stims/wedding-28.4a.mp4,stims/wedding-28.5.mp4,stimsday2details/egg28.png,stimsday2details/newegg17.png,stimsday2details/newperson34.png,stimsday2details/couple28.png,stimsday2details/gift28.png,stimsday2details/new34.png,stimsday2details/n28.png,stimsday2details/cn28.png,stimsday2details/ct28.png,stimsday2details/t28.png,0,9,9,9,,,,,0,0,0,0,,,,,,,,,,,,,,,,,,,,,,,1329.0897556119598,None,,,,,,,,,,,,,,,,,,,,,,,,,,,,,,,,,,,,,,,,,,,,,,,,,,,,,,,,,,,,,,,,,,,,,,,,,,,,,,,,,,,,,,,,,,,001,27,2019_Nov_19_1710,viewing,3.1.2,60.0235339324677,
north.png,stims/wedding-28.1a.mp4,stims/wedding-28.1b.mp4,stims/wedding-28.2a.mp4,stims/wedding-28.3a.mp4,stims/wedding-28.4a.mp4,stims/wedding-28.5.mp4,stimsday2details/egg28.png,stimsday2details/newegg17.png,stimsday2details/newperson34.png,stimsday2details/couple28.png,stimsday2details/gift28.png,stimsday2details/new34.png,stimsday2details/n28.png,stimsday2details/cn28.png,stimsday2details/ct28.png,stimsday2details/t28.png,0,9,9,9,,,,,,,,,0,0,0,0,,,,,,,,,,,,,,,,,,,,,2.8517344212159514,None,1339.3216726081446,1364.4720843760297,1364.4720843760297,None,1373.4762517111376,1390.4719213419594,1390.4719213419594,1413.471765436232,1413.471765436232,1437.4711283240467,1437.4711283240467,None,,,,,,,,,,,,,,,,,,,,,,,,,,,,,,,,,,,,,,,,,,,,,,,,,,,,,,,,,,,,,,,,,,,,,,,,,,,,,001,27,2019_Nov_19_1710,viewing,3.1.2,60.0235339324677,
north.png,stims/wedding-28.1a.mp4,stims/wedding-28.1b.mp4,stims/wedding-28.2a.mp4,stims/wedding-28.3a.mp4,stims/wedding-28.4a.mp4,stims/wedding-28.5.mp4,stimsday2details/egg28.png,stimsday2details/newegg17.png,stimsday2details/newperson34.png,stimsday2details/couple28.png,stimsday2details/gift28.png,stimsday2details/new34.png,stimsday2details/n28.png,stimsday2details/cn28.png,stimsday2details/ct28.png,stimsday2details/t28.png,0,9,9,9,,,,,,,,,,,,,0,0,0,0,,,,,,,,,,,,,,,,,,,,,,,,,,,,,,,None,None,None,None,None,None,None,None,None,None,None,None,None,None,None,None,None,None,None,,None,None,None,,None,None,,,,,,,,,,,,,,,,,,,,,,,,,,,,,,,,,,,,,,,,,,,,,,,,,,,001,27,2019_Nov_19_1710,viewing,3.1.2,60.0235339324677,
north.png,stims/wedding-28.1a.mp4,stims/wedding-28.1b.mp4,stims/wedding-28.2a.mp4,stims/wedding-28.3a.mp4,stims/wedding-28.4a.mp4,stims/wedding-28.5.mp4,stimsday2details/egg28.png,stimsday2details/newegg17.png,stimsday2details/newperson34.png,stimsday2details/couple28.png,stimsday2details/gift28.png,stimsday2details/new34.png,stimsday2details/n28.png,stimsday2details/cn28.png,stimsday2details/ct28.png,stimsday2details/t28.png,0,9,9,9,,,,,,,,,,,,,,,,,,,,,,,,,,,,,,,,,,,,,,,,,,,,,,,,,,,,,,,,,,,,,,,,,,,,,,,,,3.3466145396232605e-05,None,None,,1461.9385047331452,None,1461.9385047331452,None,1461.9385047331452,None,1463.9369204682298,None,None,,1463.9369204682298,None,1463.9369204682298,None,1465.9369375733659,None,1465.9369375733659,None,None,,1465.9369375733659,None,None,,1467.937806176953,None,1467.937806176953,None,1467.937806176953,None,1469.937035086099,None,1469.937035086099,None,None,,1469.937035086099,None,1471.9376988210715,None,1471.9376988210715,None,None,,1471.9376988210715,None,001,27,2019_Nov_19_1710,viewing,3.1.2,60.0235339324677,
north.png,stims/wedding-19.1a.mp4,stims/wedding-19.1b.mp4,stims/wedding-19.2a.mp4,stims/wedding-19.3a.mp4,stims/wedding-19.4a.mp4,stims/wedding-19.5.mp4,stimsday2details/newegg18.png,stimsday2details/egg19.png,stimsday2details/couple19.png,stimsday2details/newperson35.png,stimsday2details/new35.png,stimsday2details/gift19.png,stimsday2details/cn19.png,stimsday2details/n19.png,stimsday2details/ct19.png,stimsday2details/t19.png,0,10,10,10,0,0,0,0,,,,,,,,,,,,,,,,,,,,,,,,,None,None,,,,,,,,,,,,,,,,,,,,,,,,,,,,,,,,,,,,,,,,,,,,,,,,,,,,,,,,,,,,,,,,,,,,,,,,,,,,,,,,,,,,,,,,,,,,,001,27,2019_Nov_19_1710,viewing,3.1.2,60.0235339324677,
north.png,stims/wedding-19.1a.mp4,stims/wedding-19.1b.mp4,stims/wedding-19.2a.mp4,stims/wedding-19.3a.mp4,stims/wedding-19.4a.mp4,stims/wedding-19.5.mp4,stimsday2details/newegg18.png,stimsday2details/egg19.png,stimsday2details/couple19.png,stimsday2details/newperson35.png,stimsday2details/new35.png,stimsday2details/gift19.png,stimsday2details/cn19.png,stimsday2details/n19.png,stimsday2details/ct19.png,stimsday2details/t19.png,0,10,10,10,,,,,0,0,0,0,,,,,,,,,,,,,,,,,,,,,,,1474.1868635369465,None,,,,,,,,,,,,,,,,,,,,,,,,,,,,,,,,,,,,,,,,,,,,,,,,,,,,,,,,,,,,,,,,,,,,,,,,,,,,,,,,,,,,,,,,,,,001,27,2019_Nov_19_1710,viewing,3.1.2,60.0235339324677,
north.png,stims/wedding-19.1a.mp4,stims/wedding-19.1b.mp4,stims/wedding-19.2a.mp4,stims/wedding-19.3a.mp4,stims/wedding-19.4a.mp4,stims/wedding-19.5.mp4,stimsday2details/newegg18.png,stimsday2details/egg19.png,stimsday2details/couple19.png,stimsday2details/newperson35.png,stimsday2details/new35.png,stimsday2details/gift19.png,stimsday2details/cn19.png,stimsday2details/n19.png,stimsday2details/ct19.png,stimsday2details/t19.png,0,10,10,10,,,,,,,,,0,0,0,0,,,,,,,,,,,,,,,,,,,,,2.9990321453660727,None,1484.4366568760015,1509.4408419262618,1509.4536236259155,None,1518.4536913279444,1535.4357914049178,1535.4534594672732,1558.441523252055,1558.4541089599952,None,1582.452929773368,None,,,,,,,,,,,,,,,,,,,,,,,,,,,,,,,,,,,,,,,,,,,,,,,,,,,,,,,,,,,,,,,,,,,,,,,,,,,,,001,27,2019_Nov_19_1710,viewing,3.1.2,60.0235339324677,
north.png,stims/wedding-19.1a.mp4,stims/wedding-19.1b.mp4,stims/wedding-19.2a.mp4,stims/wedding-19.3a.mp4,stims/wedding-19.4a.mp4,stims/wedding-19.5.mp4,stimsday2details/newegg18.png,stimsday2details/egg19.png,stimsday2details/couple19.png,stimsday2details/newperson35.png,stimsday2details/new35.png,stimsday2details/gift19.png,stimsday2details/cn19.png,stimsday2details/n19.png,stimsday2details/ct19.png,stimsday2details/t19.png,0,10,10,10,,,,,,,,,,,,,0,0,0,0,,,,,,,,,,,,,,,,,,,,,,,,,,,,,,,None,None,None,None,None,None,None,None,None,None,None,None,None,None,None,None,None,None,None,,None,None,None,,None,None,,,,,,,,,,,,,,,,,,,,,,,,,,,,,,,,,,,,,,,,,,,,,,,,,,,001,27,2019_Nov_19_1710,viewing,3.1.2,60.0235339324677,
north.png,stims/wedding-19.1a.mp4,stims/wedding-19.1b.mp4,stims/wedding-19.2a.mp4,stims/wedding-19.3a.mp4,stims/wedding-19.4a.mp4,stims/wedding-19.5.mp4,stimsday2details/newegg18.png,stimsday2details/egg19.png,stimsday2details/couple19.png,stimsday2details/newperson35.png,stimsday2details/new35.png,stimsday2details/gift19.png,stimsday2details/cn19.png,stimsday2details/n19.png,stimsday2details/ct19.png,stimsday2details/t19.png,0,10,10,10,,,,,,,,,,,,,,,,,,,,,,,,,,,,,,,,,,,,,,,,,,,,,,,,,,,,,,,,,,,,,,,,,,,,,,,,,3.2135285437107086e-05,None,None,,1607.034943126142,None,1607.034943126142,None,1607.034943126142,None,1609.0184382321313,None,None,,1609.0184382321313,None,1609.0184382321313,None,1611.0181586160325,None,1611.0181586160325,None,None,,1611.0181586160325,None,None,,1613.019260761328,None,1613.019260761328,None,1613.019260761328,None,1615.0230508772656,None,1615.0230508772656,None,None,,1615.0230508772656,None,1617.022996101994,None,1617.022996101994,None,None,,1617.022996101994,None,001,27,2019_Nov_19_1710,viewing,3.1.2,60.0235339324677,
south.png,stims/wedding-38.1a.mp4,stims/wedding-38.1b.mp4,stims/wedding-38.2b.mp4,stims/wedding-38.3a.mp4,stims/wedding-38.4b.mp4,stims/wedding-38.5.mp4,stimsday2details/painting38.png,stimsday2details/newpainting18.png,stimsday2details/couple38.png,stimsday2details/newperson36.png,stimsday2details/new36.png,stimsday2details/gift38.png,stimsday2details/cn38.png,stimsday2details/n38.png,stimsday2details/ct38.png,stimsday2details/t38.png,0,11,11,11,0,0,0,0,,,,,,,,,,,,,,,,,,,,,,,,,1619.0182842020877,None,,,,,,,,,,,,,,,,,,,,,,,,,,,,,,,,,,,,,,,,,,,,,,,,,,,,,,,,,,,,,,,,,,,,,,,,,,,,,,,,,,,,,,,,,,,,,001,27,2019_Nov_19_1710,viewing,3.1.2,60.0235339324677,
south.png,stims/wedding-38.1a.mp4,stims/wedding-38.1b.mp4,stims/wedding-38.2b.mp4,stims/wedding-38.3a.mp4,stims/wedding-38.4b.mp4,stims/wedding-38.5.mp4,stimsday2details/painting38.png,stimsday2details/newpainting18.png,stimsday2details/couple38.png,stimsday2details/newperson36.png,stimsday2details/new36.png,stimsday2details/gift38.png,stimsday2details/cn38.png,stimsday2details/n38.png,stimsday2details/ct38.png,stimsday2details/t38.png,0,11,11,11,,,,,0,0,0,0,,,,,,,,,,,,,,,,,,,,,,,None,None,,,,,,,,,,,,,,,,,,,,,,,,,,,,,,,,,,,,,,,,,,,,,,,,,,,,,,,,,,,,,,,,,,,,,,,,,,,,,,,,,,,,,,,,,,,001,27,2019_Nov_19_1710,viewing,3.1.2,60.0235339324677,
south.png,stims/wedding-38.1a.mp4,stims/wedding-38.1b.mp4,stims/wedding-38.2b.mp4,stims/wedding-38.3a.mp4,stims/wedding-38.4b.mp4,stims/wedding-38.5.mp4,stimsday2details/painting38.png,stimsday2details/newpainting18.png,stimsday2details/couple38.png,stimsday2details/newperson36.png,stimsday2details/new36.png,stimsday2details/gift38.png,stimsday2details/cn38.png,stimsday2details/n38.png,stimsday2details/ct38.png,stimsday2details/t38.png,0,11,11,11,,,,,,,,,0,0,0,0,,,,,,,,,,,,,,,,,,,,,None,None,None,None,None,None,None,None,None,None,None,None,None,None,,,,,,,,,,,,,,,,,,,,,,,,,,,,,,,,,,,,,,,,,,,,,,,,,,,,,,,,,,,,,,,,,,,,,,,,,,,,,001,27,2019_Nov_19_1710,viewing,3.1.2,60.0235339324677,
south.png,stims/wedding-38.1a.mp4,stims/wedding-38.1b.mp4,stims/wedding-38.2b.mp4,stims/wedding-38.3a.mp4,stims/wedding-38.4b.mp4,stims/wedding-38.5.mp4,stimsday2details/painting38.png,stimsday2details/newpainting18.png,stimsday2details/couple38.png,stimsday2details/newperson36.png,stimsday2details/new36.png,stimsday2details/gift38.png,stimsday2details/cn38.png,stimsday2details/n38.png,stimsday2details/ct38.png,stimsday2details/t38.png,0,11,11,11,,,,,,,,,,,,,0,0,0,0,,,,,,,,,,,,,,,,,,,,,,,,,,,,,,,2.884634807705879,None,1632.6024414291605,1657.7185945073143,1657.7346426323056,None,1666.7357027260587,None,1683.7371917790733,1687.7182751549408,1687.7345056780614,1710.721575371921,1710.734620236326,1714.7208052319475,1714.7342643011361,None,1738.7334951823577,None,['1'],[3.7038363302126527],1682.7373195872642,1687.7182751549408,['2'],[2.4898935691453516],1709.7338853441179,1714.7208052319475,,,,,,,,,,,,,,,,,,,,,,,,,,,,,,,,,,,,,,,,,,,,,,,,,,,001,27,2019_Nov_19_1710,viewing,3.1.2,60.0235339324677,
south.png,stims/wedding-38.1a.mp4,stims/wedding-38.1b.mp4,stims/wedding-38.2b.mp4,stims/wedding-38.3a.mp4,stims/wedding-38.4b.mp4,stims/wedding-38.5.mp4,stimsday2details/painting38.png,stimsday2details/newpainting18.png,stimsday2details/couple38.png,stimsday2details/newperson36.png,stimsday2details/new36.png,stimsday2details/gift38.png,stimsday2details/cn38.png,stimsday2details/n38.png,stimsday2details/ct38.png,stimsday2details/t38.png,0,11,11,11,,,,,,,,,,,,,,,,,,,,,,,,,,,,,,,,,,,,,,,,,,,,,,,,,,,,,,,,,,,,,,,,,,,,,,,,,3.772089257836342e-05,None,None,,1759.6709748851135,None,1759.6709748851135,None,1759.6709748851135,None,1761.6674976530485,None,None,,1761.6674976530485,None,1761.6674976530485,None,1763.6711178421974,None,1763.6711178421974,None,None,,1763.6711178421974,None,None,,1765.6702204709873,None,1765.6702204709873,None,1765.6702204709873,None,1767.667119123973,None,1767.667119123973,None,None,,1767.667119123973,None,1769.6706672101282,None,1769.6706672101282,None,None,,1769.6706672101282,None,001,27,2019_Nov_19_1710,viewing,3.1.2,60.0235339324677,
