northOrSouth,stimFile1a,stimFile1b,stimFile2,stimFile3,stimFile4,stimFile5,Qeggpainting1,Qeggpainting2,Qcharacter1,Qcharacter2,Qgift1,Qgift2,Qname1,Qname2,Qtheme1,Qtheme2,trials.thisRepN,trials.thisTrialN,trials.thisN,trials.thisIndex,South.thisRepN,South.thisTrialN,South.thisN,South.thisIndex,North.thisRepN,North.thisTrialN,North.thisN,North.thisIndex,noQtrials.thisRepN,noQtrials.thisTrialN,noQtrials.thisN,noQtrials.thisIndex,Qtrials.thisRepN,Qtrials.thisTrialN,Qtrials.thisN,Qtrials.thisIndex,text.started,text.stopped,prep_trigger.keys,prep_trigger.rt,prep_trigger.started,prep_trigger.stopped,waiting.started,waiting.stopped,trigger.keys,trigger.rt,trigger.started,trigger.stopped,southCueImage.started,southCueImage.stopped,northCueImage.started,northCueImage.stopped,trialNoQs.started,trialNoQs.stopped,vid1a.started,vid1a.stopped,vid1b.started,vid1b.stopped,vid2.started,vid2.stopped,vid3.started,vid3.stopped,vid4.started,vid4.stopped,vid5.started,vid5.stopped,ISI2.started,ISI2.stopped,vid1a_q.started,vid1a_q.stopped,vid1b_q.started,vid1b_q.stopped,vid2_q.started,vid2_q.stopped,l2q.started,l2q.stopped,vid3_q.started,vid3_q.stopped,l3q.started,l3q.stopped,vid4_q.started,vid4_q.stopped,vid5_q.started,vid5_q.stopped,key_resp_2.keys,key_resp_2.rt,key_resp_2.started,key_resp_2.stopped,key_resp_3.keys,key_resp_3.rt,key_resp_3.started,key_resp_3.stopped,ISI7.started,ISI7.stopped,nameQresp.keys,nameQresp.rt,nameQresp.started,nameQresp.stopped,nameQ1.started,nameQ1.stopped,nameQ2.started,nameQ2.stopped,eggPainting1.started,eggPainting1.stopped,eggPaintingQresp.keys,eggPaintingQresp.started,eggPaintingQresp.stopped,eggPainting2.started,eggPainting2.stopped,character1.started,character1.stopped,character2.started,character2.stopped,Qcharacter.keys,Qcharacter.rt,Qcharacter.started,Qcharacter.stopped,themeQresp.keys,themeQresp.rt,themeQresp.started,themeQresp.stopped,themeQ1.started,themeQ1.stopped,themeQ2.started,themeQ2.stopped,gift1.started,gift1.stopped,gift2.started,gift2.stopped,giftQresp.keys,giftQresp.rt,giftQresp.started,giftQresp.stopped,northorsouth1.started,northorsouth1.stopped,northorsouth2.started,northorsouth2.stopped,northOrSouthQ.keys,northOrSouthQ.rt,northOrSouthQ.started,northOrSouthQ.stopped,eggPaintingQresp.rt,session,participant,date,expName,psychopyVersion,frameRate,
,,,,,,,,,,,,,,,,,,,,,,,,,,,,,,,,,,,,,4.780032845214009,None,g,1.1398244947195053,4.780032845214009,None,,,,,,,,,,,,,,,,,,,,,,,,,,,,,,,,,,,,,,,,,,,,,,,,,,,,,,,,,,,,,,,,,,,,,,,,,,,,,,,,,,,,,,,,,,,,,,,,,,,,,001,42,2020_Jan_24_1238,viewing,3.1.2,59.96475291058282,
,,,,,,,,,,,,,,,,,,,,,,,,,,,,,,,,,,,,,,,,,,,5.928205128759146,None,equal,16.615882996469736,5.928205128759146,None,,,,,,,,,,,,,,,,,,,,,,,,,,,,,,,,,,,,,,,,,,,,,,,,,,,,,,,,,,,,,,,,,,,,,,,,,,,,,,,,,,,,,,,,,,,,,,,001,42,2020_Jan_24_1238,viewing,3.1.2,59.96475291058282,
south.png,stims/wedding-20.1a.mp4,stims/wedding-20.1b.mp4,stims/wedding-20.2a.mp4,stims/wedding-20.3b.mp4,stims/wedding-20.4a.mp4,stims/wedding-20.5.mp4,stimsday2details/egg20.png,stimsday2details/newegg13.png,stimsday2details/couple20.png,stimsday2details/newperson25.png,stimsday2details/gift20.png,stimsday2details/new25.png,stimsday2details/n20.png,stimsday2details/cn20.png,stimsday2details/ct20.png,stimsday2details/t20.png,0,0,0,0,0,0,0,0,,,,,,,,,,,,,,,,,,,,,,,,,22.660586356185377,None,,,,,,,,,,,,,,,,,,,,,,,,,,,,,,,,,,,,,,,,,,,,,,,,,,,,,,,,,,,,,,,,,,,,,,,,,,,,,,,,,,,,,,,,,,,,,001,42,2020_Jan_24_1238,viewing,3.1.2,59.96475291058282,
south.png,stims/wedding-20.1a.mp4,stims/wedding-20.1b.mp4,stims/wedding-20.2a.mp4,stims/wedding-20.3b.mp4,stims/wedding-20.4a.mp4,stims/wedding-20.5.mp4,stimsday2details/egg20.png,stimsday2details/newegg13.png,stimsday2details/couple20.png,stimsday2details/newperson25.png,stimsday2details/gift20.png,stimsday2details/new25.png,stimsday2details/n20.png,stimsday2details/cn20.png,stimsday2details/ct20.png,stimsday2details/t20.png,0,0,0,0,,,,,0,0,0,0,,,,,,,,,,,,,,,,,,,,,,,None,None,,,,,,,,,,,,,,,,,,,,,,,,,,,,,,,,,,,,,,,,,,,,,,,,,,,,,,,,,,,,,,,,,,,,,,,,,,,,,,,,,,,,,,,,,,,001,42,2020_Jan_24_1238,viewing,3.1.2,59.96475291058282,
south.png,stims/wedding-20.1a.mp4,stims/wedding-20.1b.mp4,stims/wedding-20.2a.mp4,stims/wedding-20.3b.mp4,stims/wedding-20.4a.mp4,stims/wedding-20.5.mp4,stimsday2details/egg20.png,stimsday2details/newegg13.png,stimsday2details/couple20.png,stimsday2details/newperson25.png,stimsday2details/gift20.png,stimsday2details/new25.png,stimsday2details/n20.png,stimsday2details/cn20.png,stimsday2details/ct20.png,stimsday2details/t20.png,0,0,0,0,,,,,,,,,0,0,0,0,,,,,,,,,,,,,,,,,,,,,None,None,None,None,None,None,None,None,None,None,None,None,None,None,,,,,,,,,,,,,,,,,,,,,,,,,,,,,,,,,,,,,,,,,,,,,,,,,,,,,,,,,,,,,,,,,,,,,,,,,,,,,001,42,2020_Jan_24_1238,viewing,3.1.2,59.96475291058282,
south.png,stims/wedding-20.1a.mp4,stims/wedding-20.1b.mp4,stims/wedding-20.2a.mp4,stims/wedding-20.3b.mp4,stims/wedding-20.4a.mp4,stims/wedding-20.5.mp4,stimsday2details/egg20.png,stimsday2details/newegg13.png,stimsday2details/couple20.png,stimsday2details/newperson25.png,stimsday2details/gift20.png,stimsday2details/new25.png,stimsday2details/n20.png,stimsday2details/cn20.png,stimsday2details/ct20.png,stimsday2details/t20.png,0,0,0,0,,,,,,,,,,,,,0,0,0,0,,,,,,,,,,,,,,,,,,,,,,,,,,,,,,,2.811328487470746,None,36.11119234841317,61.29375354386866,61.32793958298862,None,70.32729390263557,87.30956193991005,87.32674834877253,91.31067291274667,91.3271301696077,114.30979944765568,114.33076722919941,118.30991923436522,118.32706908322871,142.30943648330867,142.32547245547175,None,['2'],[3.266866708174348],86.31287443451583,91.31067291274667,['1'],[2.6849207151681185],113.32690532691777,118.30991923436522,,,,,,,,,,,,,,,,,,,,,,,,,,,,,,,,,,,,,,,,,,,,,,,,,,,001,42,2020_Jan_24_1238,viewing,3.1.2,59.96475291058282,
south.png,stims/wedding-20.1a.mp4,stims/wedding-20.1b.mp4,stims/wedding-20.2a.mp4,stims/wedding-20.3b.mp4,stims/wedding-20.4a.mp4,stims/wedding-20.5.mp4,stimsday2details/egg20.png,stimsday2details/newegg13.png,stimsday2details/couple20.png,stimsday2details/newperson25.png,stimsday2details/gift20.png,stimsday2details/new25.png,stimsday2details/n20.png,stimsday2details/cn20.png,stimsday2details/ct20.png,stimsday2details/t20.png,0,0,0,0,,,,,,,,,,,,,,,,,,,,,,,,,,,,,,,,,,,,,,,,,,,,,,,,,,,,,,,,,,,,,,,,,,,,,,,,,2.9685907065868378e-05,None,1,1.1500703934580088,161.99744874518365,None,161.99744874518365,None,161.99744874518365,None,163.99470587540418,None,None,163.99470587540418,None,163.99470587540418,None,165.99992175586522,None,165.99992175586522,None,1,1.1275702342391014,165.99992175586522,None,2,1.1194820860400796,167.99602440930903,None,167.99602440930903,None,167.99602440930903,None,169.99267795775086,None,169.99267795775086,None,1,0.8689879812300205,169.99267795775086,None,171.99244062509388,None,171.99244062509388,None,2,0.7885892484337091,171.99244062509388,None,,001,42,2020_Jan_24_1238,viewing,3.1.2,59.96475291058282,
north.png,stims/wedding-28.1a.mp4,stims/wedding-28.1b.mp4,stims/wedding-28.2a.mp4,stims/wedding-28.3a.mp4,stims/wedding-28.4a.mp4,stims/wedding-28.5.mp4,stimsday2details/newegg14.png,stimsday2details/egg28.png,stimsday2details/newperson26.png,stimsday2details/couple28.png,stimsday2details/gift28.png,stimsday2details/new26.png,stimsday2details/n28.png,stimsday2details/cn28.png,stimsday2details/ct28.png,stimsday2details/t28.png,0,1,1,1,0,0,0,0,,,,,,,,,,,,,,,,,,,,,,,,,None,None,,,,,,,,,,,,,,,,,,,,,,,,,,,,,,,,,,,,,,,,,,,,,,,,,,,,,,,,,,,,,,,,,,,,,,,,,,,,,,,,,,,,,,,,,,,,,001,42,2020_Jan_24_1238,viewing,3.1.2,59.96475291058282,
north.png,stims/wedding-28.1a.mp4,stims/wedding-28.1b.mp4,stims/wedding-28.2a.mp4,stims/wedding-28.3a.mp4,stims/wedding-28.4a.mp4,stims/wedding-28.5.mp4,stimsday2details/newegg14.png,stimsday2details/egg28.png,stimsday2details/newperson26.png,stimsday2details/couple28.png,stimsday2details/gift28.png,stimsday2details/new26.png,stimsday2details/n28.png,stimsday2details/cn28.png,stimsday2details/ct28.png,stimsday2details/t28.png,0,1,1,1,,,,,0,0,0,0,,,,,,,,,,,,,,,,,,,,,,,174.04284632764757,None,,,,,,,,,,,,,,,,,,,,,,,,,,,,,,,,,,,,,,,,,,,,,,,,,,,,,,,,,,,,,,,,,,,,,,,,,,,,,,,,,,,,,,,,,,,001,42,2020_Jan_24_1238,viewing,3.1.2,59.96475291058282,
north.png,stims/wedding-28.1a.mp4,stims/wedding-28.1b.mp4,stims/wedding-28.2a.mp4,stims/wedding-28.3a.mp4,stims/wedding-28.4a.mp4,stims/wedding-28.5.mp4,stimsday2details/newegg14.png,stimsday2details/egg28.png,stimsday2details/newperson26.png,stimsday2details/couple28.png,stimsday2details/gift28.png,stimsday2details/new26.png,stimsday2details/n28.png,stimsday2details/cn28.png,stimsday2details/ct28.png,stimsday2details/t28.png,0,1,1,1,,,,,,,,,0,0,0,0,,,,,,,,,,,,,,,,,,,,,3.0854751728475094,None,184.17595043499023,209.09162973053753,209.10869699530303,None,218.0958046130836,235.0920254131779,235.10776693187654,258.0917351190001,258.10804424155504,282.09150904230773,282.1070587337017,None,,,,,,,,,,,,,,,,,,,,,,,,,,,,,,,,,,,,,,,,,,,,,,,,,,,,,,,,,,,,,,,,,,,,,,,,,,,,,001,42,2020_Jan_24_1238,viewing,3.1.2,59.96475291058282,
north.png,stims/wedding-28.1a.mp4,stims/wedding-28.1b.mp4,stims/wedding-28.2a.mp4,stims/wedding-28.3a.mp4,stims/wedding-28.4a.mp4,stims/wedding-28.5.mp4,stimsday2details/newegg14.png,stimsday2details/egg28.png,stimsday2details/newperson26.png,stimsday2details/couple28.png,stimsday2details/gift28.png,stimsday2details/new26.png,stimsday2details/n28.png,stimsday2details/cn28.png,stimsday2details/ct28.png,stimsday2details/t28.png,0,1,1,1,,,,,,,,,,,,,0,0,0,0,,,,,,,,,,,,,,,,,,,,,,,,,,,,,,,None,None,None,None,None,None,None,None,None,None,None,None,None,None,None,None,None,None,None,,None,None,None,,None,None,,,,,,,,,,,,,,,,,,,,,,,,,,,,,,,,,,,,,,,,,,,,,,,,,,,001,42,2020_Jan_24_1238,viewing,3.1.2,59.96475291058282,
north.png,stims/wedding-28.1a.mp4,stims/wedding-28.1b.mp4,stims/wedding-28.2a.mp4,stims/wedding-28.3a.mp4,stims/wedding-28.4a.mp4,stims/wedding-28.5.mp4,stimsday2details/newegg14.png,stimsday2details/egg28.png,stimsday2details/newperson26.png,stimsday2details/couple28.png,stimsday2details/gift28.png,stimsday2details/new26.png,stimsday2details/n28.png,stimsday2details/cn28.png,stimsday2details/ct28.png,stimsday2details/t28.png,0,1,1,1,,,,,,,,,,,,,,,,,,,,,,,,,,,,,,,,,,,,,,,,,,,,,,,,,,,,,,,,,,,,,,,,,,,,,,,,,2.986844629049301e-05,None,2,0.8171110218390822,306.1261320738122,None,306.1261320738122,None,306.1261320738122,None,308.1242813933641,None,3,308.1242813933641,None,308.1242813933641,None,310.12903016153723,None,310.12903016153723,None,3,0.8135462561622262,310.12903016153723,None,3,1.0901235723868012,312.1236990727484,None,312.1236990727484,None,312.1236990727484,None,314.12382269185036,None,314.12382269185036,None,2,1.0856265919283032,314.12382269185036,None,316.1240934152156,None,316.1240934152156,None,2,0.7356800325214863,316.1240934152156,None,1.3237065654248,001,42,2020_Jan_24_1238,viewing,3.1.2,59.96475291058282,
north.png,stims/wedding-2.1a.mp4,stims/wedding-2.1b.mp4,stims/wedding-2.2b.mp4,stims/wedding-2.3b.mp4,stims/wedding-2.4b.mp4,stims/wedding-2.5.mp4,stimsday2details/newpainting13.png,stimsday2details/painting2.png,stimsday2details/couple2.png,stimsday2details/newperson27.png,stimsday2details/new27.png,stimsday2details/gift2.png,stimsday2details/cn2.png,stimsday2details/n2.png,stimsday2details/ct2.png,stimsday2details/t2.png,0,2,2,2,0,0,0,0,,,,,,,,,,,,,,,,,,,,,,,,,None,None,,,,,,,,,,,,,,,,,,,,,,,,,,,,,,,,,,,,,,,,,,,,,,,,,,,,,,,,,,,,,,,,,,,,,,,,,,,,,,,,,,,,,,,,,,,,,001,42,2020_Jan_24_1238,viewing,3.1.2,59.96475291058282,
north.png,stims/wedding-2.1a.mp4,stims/wedding-2.1b.mp4,stims/wedding-2.2b.mp4,stims/wedding-2.3b.mp4,stims/wedding-2.4b.mp4,stims/wedding-2.5.mp4,stimsday2details/newpainting13.png,stimsday2details/painting2.png,stimsday2details/couple2.png,stimsday2details/newperson27.png,stimsday2details/new27.png,stimsday2details/gift2.png,stimsday2details/cn2.png,stimsday2details/n2.png,stimsday2details/ct2.png,stimsday2details/t2.png,0,2,2,2,,,,,0,0,0,0,,,,,,,,,,,,,,,,,,,,,,,318.1909541413188,None,,,,,,,,,,,,,,,,,,,,,,,,,,,,,,,,,,,,,,,,,,,,,,,,,,,,,,,,,,,,,,,,,,,,,,,,,,,,,,,,,,,,,,,,,,,001,42,2020_Jan_24_1238,viewing,3.1.2,59.96475291058282,
north.png,stims/wedding-2.1a.mp4,stims/wedding-2.1b.mp4,stims/wedding-2.2b.mp4,stims/wedding-2.3b.mp4,stims/wedding-2.4b.mp4,stims/wedding-2.5.mp4,stimsday2details/newpainting13.png,stimsday2details/painting2.png,stimsday2details/couple2.png,stimsday2details/newperson27.png,stimsday2details/new27.png,stimsday2details/gift2.png,stimsday2details/cn2.png,stimsday2details/n2.png,stimsday2details/ct2.png,stimsday2details/t2.png,0,2,2,2,,,,,,,,,0,0,0,0,,,,,,,,,,,,,,,,,,,,,3.1313416082412004,None,328.39102661795914,None,353.27857244666666,None,362.2729877382517,None,379.27252955920994,402.27222891151905,402.27222891151905,426.2728997627273,426.2728997627273,None,,,,,,,,,,,,,,,,,,,,,,,,,,,,,,,,,,,,,,,,,,,,,,,,,,,,,,,,,,,,,,,,,,,,,,,,,,,,,001,42,2020_Jan_24_1238,viewing,3.1.2,59.96475291058282,
north.png,stims/wedding-2.1a.mp4,stims/wedding-2.1b.mp4,stims/wedding-2.2b.mp4,stims/wedding-2.3b.mp4,stims/wedding-2.4b.mp4,stims/wedding-2.5.mp4,stimsday2details/newpainting13.png,stimsday2details/painting2.png,stimsday2details/couple2.png,stimsday2details/newperson27.png,stimsday2details/new27.png,stimsday2details/gift2.png,stimsday2details/cn2.png,stimsday2details/n2.png,stimsday2details/ct2.png,stimsday2details/t2.png,0,2,2,2,,,,,,,,,,,,,0,0,0,0,,,,,,,,,,,,,,,,,,,,,,,,,,,,,,,None,None,None,None,None,None,None,None,None,None,None,None,None,None,None,None,None,None,None,,None,None,None,,None,None,,,,,,,,,,,,,,,,,,,,,,,,,,,,,,,,,,,,,,,,,,,,,,,,,,,001,42,2020_Jan_24_1238,viewing,3.1.2,59.96475291058282,
north.png,stims/wedding-2.1a.mp4,stims/wedding-2.1b.mp4,stims/wedding-2.2b.mp4,stims/wedding-2.3b.mp4,stims/wedding-2.4b.mp4,stims/wedding-2.5.mp4,stimsday2details/newpainting13.png,stimsday2details/painting2.png,stimsday2details/couple2.png,stimsday2details/newperson27.png,stimsday2details/new27.png,stimsday2details/gift2.png,stimsday2details/cn2.png,stimsday2details/n2.png,stimsday2details/ct2.png,stimsday2details/t2.png,0,2,2,2,,,,,,,,,,,,,,,,,,,,,,,,,,,,,,,,,,,,,,,,,,,,,,,,,,,,,,,,,,,,,,,,,,,,,,,,,3.782100975513458e-05,None,2,1.4105093069374561,450.0134147359058,None,450.0134147359058,None,450.0134147359058,None,452.0051170028746,None,2,452.0051170028746,None,452.0051170028746,None,454.00630784220994,None,454.00630784220994,None,1,1.0522688003256917,454.00630784220994,None,2,0.8006596015766263,456.00580336060375,None,456.00580336060375,None,456.00580336060375,None,458.01026514545083,None,458.01026514545083,None,1,1.0964169073849916,458.01026514545083,None,460.0056472448632,None,460.0056472448632,None,1,1.0372902499511838,460.0056472448632,None,0.6510628908872604,001,42,2020_Jan_24_1238,viewing,3.1.2,59.96475291058282,
south.png,stims/wedding-34.1a.mp4,stims/wedding-34.1b.mp4,stims/wedding-34.2a.mp4,stims/wedding-34.3b.mp4,stims/wedding-34.4a.mp4,stims/wedding-34.5.mp4,stimsday2details/egg34.png,stimsday2details/newegg15.png,stimsday2details/newperson28.png,stimsday2details/couple34.png,stimsday2details/new28.png,stimsday2details/gift34.png,stimsday2details/n34.png,stimsday2details/cn34.png,stimsday2details/ct34.png,stimsday2details/t34.png,0,3,3,3,0,0,0,0,,,,,,,,,,,,,,,,,,,,,,,,,462.00532124284655,None,,,,,,,,,,,,,,,,,,,,,,,,,,,,,,,,,,,,,,,,,,,,,,,,,,,,,,,,,,,,,,,,,,,,,,,,,,,,,,,,,,,,,,,,,,,,,001,42,2020_Jan_24_1238,viewing,3.1.2,59.96475291058282,
south.png,stims/wedding-34.1a.mp4,stims/wedding-34.1b.mp4,stims/wedding-34.2a.mp4,stims/wedding-34.3b.mp4,stims/wedding-34.4a.mp4,stims/wedding-34.5.mp4,stimsday2details/egg34.png,stimsday2details/newegg15.png,stimsday2details/newperson28.png,stimsday2details/couple34.png,stimsday2details/new28.png,stimsday2details/gift34.png,stimsday2details/n34.png,stimsday2details/cn34.png,stimsday2details/ct34.png,stimsday2details/t34.png,0,3,3,3,,,,,0,0,0,0,,,,,,,,,,,,,,,,,,,,,,,None,None,,,,,,,,,,,,,,,,,,,,,,,,,,,,,,,,,,,,,,,,,,,,,,,,,,,,,,,,,,,,,,,,,,,,,,,,,,,,,,,,,,,,,,,,,,,001,42,2020_Jan_24_1238,viewing,3.1.2,59.96475291058282,
south.png,stims/wedding-34.1a.mp4,stims/wedding-34.1b.mp4,stims/wedding-34.2a.mp4,stims/wedding-34.3b.mp4,stims/wedding-34.4a.mp4,stims/wedding-34.5.mp4,stimsday2details/egg34.png,stimsday2details/newegg15.png,stimsday2details/newperson28.png,stimsday2details/couple34.png,stimsday2details/new28.png,stimsday2details/gift34.png,stimsday2details/n34.png,stimsday2details/cn34.png,stimsday2details/ct34.png,stimsday2details/t34.png,0,3,3,3,,,,,,,,,0,0,0,0,,,,,,,,,,,,,,,,,,,,,3.2399406284093857,None,472.4225472025573,497.18784542009234,497.2052169786766,None,506.2047460656613,None,523.2042300114408,546.1924267439172,546.2044714400545,570.1878860956058,570.2038601199165,None,,,,,,,,,,,,,,,,,,,,,,,,,,,,,,,,,,,,,,,,,,,,,,,,,,,,,,,,,,,,,,,,,,,,,,,,,,,,,001,42,2020_Jan_24_1238,viewing,3.1.2,59.96475291058282,
south.png,stims/wedding-34.1a.mp4,stims/wedding-34.1b.mp4,stims/wedding-34.2a.mp4,stims/wedding-34.3b.mp4,stims/wedding-34.4a.mp4,stims/wedding-34.5.mp4,stimsday2details/egg34.png,stimsday2details/newegg15.png,stimsday2details/newperson28.png,stimsday2details/couple34.png,stimsday2details/new28.png,stimsday2details/gift34.png,stimsday2details/n34.png,stimsday2details/cn34.png,stimsday2details/ct34.png,stimsday2details/t34.png,0,3,3,3,,,,,,,,,,,,,0,0,0,0,,,,,,,,,,,,,,,,,,,,,,,,,,,,,,,None,None,None,None,None,None,None,None,None,None,None,None,None,None,None,None,None,None,None,,None,None,None,,None,None,,,,,,,,,,,,,,,,,,,,,,,,,,,,,,,,,,,,,,,,,,,,,,,,,,,001,42,2020_Jan_24_1238,viewing,3.1.2,59.96475291058282,
south.png,stims/wedding-34.1a.mp4,stims/wedding-34.1b.mp4,stims/wedding-34.2a.mp4,stims/wedding-34.3b.mp4,stims/wedding-34.4a.mp4,stims/wedding-34.5.mp4,stimsday2details/egg34.png,stimsday2details/newegg15.png,stimsday2details/newperson28.png,stimsday2details/couple34.png,stimsday2details/new28.png,stimsday2details/gift34.png,stimsday2details/n34.png,stimsday2details/cn34.png,stimsday2details/ct34.png,stimsday2details/t34.png,0,3,3,3,,,,,,,,,,,,,,,,,,,,,,,,,,,,,,,,,,,,,,,,,,,,,,,,,,,,,,,,,,,,,,,,,,,,,,,,,3.1812116503715515e-05,None,1,1.1240336084738374,593.7209030669183,None,593.7209030669183,None,593.7209030669183,None,595.7198707452044,None,1,595.7198707452044,None,595.7198707452044,None,597.7204562276602,None,597.7204562276602,None,None,,597.7204562276602,None,2,1.1368656773120165,599.7203736426309,None,599.7203736426309,None,599.7203736426309,None,601.7211144100875,None,601.7211144100875,None,2,0.8239339822903275,601.7211144100875,None,603.7197646060959,None,603.7197646060959,None,2,0.8537863465026021,603.7197646060959,None,0.8174479361623526,001,42,2020_Jan_24_1238,viewing,3.1.2,59.96475291058282,
south.png,stims/wedding-17.1a.mp4,stims/wedding-17.1b.mp4,stims/wedding-17.2a.mp4,stims/wedding-17.3b.mp4,stims/wedding-17.4a.mp4,stims/wedding-17.5.mp4,stimsday2details/newegg16.png,stimsday2details/egg17.png,stimsday2details/newperson29.png,stimsday2details/couple17.png,stimsday2details/new29.png,stimsday2details/gift17.png,stimsday2details/cn17.png,stimsday2details/n17.png,stimsday2details/t17.png,stimsday2details/ct17.png,0,4,4,4,0,0,0,0,,,,,,,,,,,,,,,,,,,,,,,,,605.7203384777531,None,,,,,,,,,,,,,,,,,,,,,,,,,,,,,,,,,,,,,,,,,,,,,,,,,,,,,,,,,,,,,,,,,,,,,,,,,,,,,,,,,,,,,,,,,,,,,001,42,2020_Jan_24_1238,viewing,3.1.2,59.96475291058282,
south.png,stims/wedding-17.1a.mp4,stims/wedding-17.1b.mp4,stims/wedding-17.2a.mp4,stims/wedding-17.3b.mp4,stims/wedding-17.4a.mp4,stims/wedding-17.5.mp4,stimsday2details/newegg16.png,stimsday2details/egg17.png,stimsday2details/newperson29.png,stimsday2details/couple17.png,stimsday2details/new29.png,stimsday2details/gift17.png,stimsday2details/cn17.png,stimsday2details/n17.png,stimsday2details/t17.png,stimsday2details/ct17.png,0,4,4,4,,,,,0,0,0,0,,,,,,,,,,,,,,,,,,,,,,,None,None,,,,,,,,,,,,,,,,,,,,,,,,,,,,,,,,,,,,,,,,,,,,,,,,,,,,,,,,,,,,,,,,,,,,,,,,,,,,,,,,,,,,,,,,,,,001,42,2020_Jan_24_1238,viewing,3.1.2,59.96475291058282,
south.png,stims/wedding-17.1a.mp4,stims/wedding-17.1b.mp4,stims/wedding-17.2a.mp4,stims/wedding-17.3b.mp4,stims/wedding-17.4a.mp4,stims/wedding-17.5.mp4,stimsday2details/newegg16.png,stimsday2details/egg17.png,stimsday2details/newperson29.png,stimsday2details/couple17.png,stimsday2details/new29.png,stimsday2details/gift17.png,stimsday2details/cn17.png,stimsday2details/n17.png,stimsday2details/t17.png,stimsday2details/ct17.png,0,4,4,4,,,,,,,,,0,0,0,0,,,,,,,,,,,,,,,,,,,,,3.05989149492234,None,616.0203665429726,None,640.9703636830673,None,649.9692797223106,666.9532786449417,666.969018721953,689.951940507628,689.9686417626217,None,713.9688345314935,None,,,,,,,,,,,,,,,,,,,,,,,,,,,,,,,,,,,,,,,,,,,,,,,,,,,,,,,,,,,,,,,,,,,,,,,,,,,,,001,42,2020_Jan_24_1238,viewing,3.1.2,59.96475291058282,
south.png,stims/wedding-17.1a.mp4,stims/wedding-17.1b.mp4,stims/wedding-17.2a.mp4,stims/wedding-17.3b.mp4,stims/wedding-17.4a.mp4,stims/wedding-17.5.mp4,stimsday2details/newegg16.png,stimsday2details/egg17.png,stimsday2details/newperson29.png,stimsday2details/couple17.png,stimsday2details/new29.png,stimsday2details/gift17.png,stimsday2details/cn17.png,stimsday2details/n17.png,stimsday2details/t17.png,stimsday2details/ct17.png,0,4,4,4,,,,,,,,,,,,,0,0,0,0,,,,,,,,,,,,,,,,,,,,,,,,,,,,,,,None,None,None,None,None,None,None,None,None,None,None,None,None,None,None,None,None,None,None,,None,None,None,,None,None,,,,,,,,,,,,,,,,,,,,,,,,,,,,,,,,,,,,,,,,,,,,,,,,,,,001,42,2020_Jan_24_1238,viewing,3.1.2,59.96475291058282,
south.png,stims/wedding-17.1a.mp4,stims/wedding-17.1b.mp4,stims/wedding-17.2a.mp4,stims/wedding-17.3b.mp4,stims/wedding-17.4a.mp4,stims/wedding-17.5.mp4,stimsday2details/newegg16.png,stimsday2details/egg17.png,stimsday2details/newperson29.png,stimsday2details/couple17.png,stimsday2details/new29.png,stimsday2details/gift17.png,stimsday2details/cn17.png,stimsday2details/n17.png,stimsday2details/t17.png,stimsday2details/ct17.png,0,4,4,4,,,,,,,,,,,,,,,,,,,,,,,,,,,,,,,,,,,,,,,,,,,,,,,,,,,,,,,,,,,,,,,,,,,,,,,,,3.829970955848694e-05,None,None,,737.7713378276676,None,737.7713378276676,None,737.7713378276676,None,739.7684114798903,None,2,739.7684114798903,None,739.7684114798903,None,741.7733538560569,None,741.7733538560569,None,2,0.9658424044027925,741.7733538560569,None,1,0.9535094434395432,743.7691502990201,None,743.7691502990201,None,743.7691502990201,None,745.7683669598773,None,745.7683669598773,None,2,0.924902587197721,745.7683669598773,None,747.7729097595438,None,747.7729097595438,None,2,0.8988540815189481,747.7729097595438,None,1.403166051954031,001,42,2020_Jan_24_1238,viewing,3.1.2,59.96475291058282,
north.png,stims/wedding-1.1a.mp4,stims/wedding-1.1b.mp4,stims/wedding-1.2a.mp4,stims/wedding-1.3a.mp4,stims/wedding-1.4a.mp4,stims/wedding-1.5.mp4,stimsday2details/newegg17.png,stimsday2details/egg1.png,stimsday2details/couple1.png,stimsday2details/newperson30.png,stimsday2details/gift1.png,stimsday2details/new30.png,stimsday2details/n1.png,stimsday2details/cn1.png,stimsday2details/t1.png,stimsday2details/ct1.png,0,5,5,5,0,0,0,0,,,,,,,,,,,,,,,,,,,,,,,,,None,None,,,,,,,,,,,,,,,,,,,,,,,,,,,,,,,,,,,,,,,,,,,,,,,,,,,,,,,,,,,,,,,,,,,,,,,,,,,,,,,,,,,,,,,,,,,,,001,42,2020_Jan_24_1238,viewing,3.1.2,59.96475291058282,
north.png,stims/wedding-1.1a.mp4,stims/wedding-1.1b.mp4,stims/wedding-1.2a.mp4,stims/wedding-1.3a.mp4,stims/wedding-1.4a.mp4,stims/wedding-1.5.mp4,stimsday2details/newegg17.png,stimsday2details/egg1.png,stimsday2details/couple1.png,stimsday2details/newperson30.png,stimsday2details/gift1.png,stimsday2details/new30.png,stimsday2details/n1.png,stimsday2details/cn1.png,stimsday2details/t1.png,stimsday2details/ct1.png,0,5,5,5,,,,,0,0,0,0,,,,,,,,,,,,,,,,,,,,,,,749.9022486740723,None,,,,,,,,,,,,,,,,,,,,,,,,,,,,,,,,,,,,,,,,,,,,,,,,,,,,,,,,,,,,,,,,,,,,,,,,,,,,,,,,,,,,,,,,,,,001,42,2020_Jan_24_1238,viewing,3.1.2,59.96475291058282,
north.png,stims/wedding-1.1a.mp4,stims/wedding-1.1b.mp4,stims/wedding-1.2a.mp4,stims/wedding-1.3a.mp4,stims/wedding-1.4a.mp4,stims/wedding-1.5.mp4,stimsday2details/newegg17.png,stimsday2details/egg1.png,stimsday2details/couple1.png,stimsday2details/newperson30.png,stimsday2details/gift1.png,stimsday2details/new30.png,stimsday2details/n1.png,stimsday2details/cn1.png,stimsday2details/t1.png,stimsday2details/ct1.png,0,5,5,5,,,,,,,,,0,0,0,0,,,,,,,,,,,,,,,,,,,,,3.0384354880079627,None,760.0850992472842,785.0519645409659,785.0519645409659,None,794.0519010033458,811.0508463364094,811.0508463364094,834.0398101732135,834.051365996711,None,858.0512368325144,None,,,,,,,,,,,,,,,,,,,,,,,,,,,,,,,,,,,,,,,,,,,,,,,,,,,,,,,,,,,,,,,,,,,,,,,,,,,,,001,42,2020_Jan_24_1238,viewing,3.1.2,59.96475291058282,
north.png,stims/wedding-1.1a.mp4,stims/wedding-1.1b.mp4,stims/wedding-1.2a.mp4,stims/wedding-1.3a.mp4,stims/wedding-1.4a.mp4,stims/wedding-1.5.mp4,stimsday2details/newegg17.png,stimsday2details/egg1.png,stimsday2details/couple1.png,stimsday2details/newperson30.png,stimsday2details/gift1.png,stimsday2details/new30.png,stimsday2details/n1.png,stimsday2details/cn1.png,stimsday2details/t1.png,stimsday2details/ct1.png,0,5,5,5,,,,,,,,,,,,,0,0,0,0,,,,,,,,,,,,,,,,,,,,,,,,,,,,,,,None,None,None,None,None,None,None,None,None,None,None,None,None,None,None,None,None,None,None,,None,None,None,,None,None,,,,,,,,,,,,,,,,,,,,,,,,,,,,,,,,,,,,,,,,,,,,,,,,,,,001,42,2020_Jan_24_1238,viewing,3.1.2,59.96475291058282,
north.png,stims/wedding-1.1a.mp4,stims/wedding-1.1b.mp4,stims/wedding-1.2a.mp4,stims/wedding-1.3a.mp4,stims/wedding-1.4a.mp4,stims/wedding-1.5.mp4,stimsday2details/newegg17.png,stimsday2details/egg1.png,stimsday2details/couple1.png,stimsday2details/newperson30.png,stimsday2details/gift1.png,stimsday2details/new30.png,stimsday2details/n1.png,stimsday2details/cn1.png,stimsday2details/t1.png,stimsday2details/ct1.png,0,5,5,5,,,,,,,,,,,,,,,,,,,,,,,,,,,,,,,,,,,,,,,,,,,,,,,,,,,,,,,,,,,,,,,,,,,,,,,,,4.647485911846161e-05,None,1,0.9710262073203921,881.8330302834511,None,881.8330302834511,None,881.8330302834511,None,883.8167859446257,None,2,883.8167859446257,None,883.8167859446257,None,885.820954490453,None,885.820954490453,None,None,,885.820954490453,None,None,,887.8165883598849,None,887.8165883598849,None,887.8165883598849,None,889.8210139647126,None,889.8210139647126,None,1,1.5364297172054648,889.8210139647126,None,891.8169567259029,None,891.8169567259029,None,1,1.8190762782469392,891.8169567259029,None,1.1585179027169943,001,42,2020_Jan_24_1238,viewing,3.1.2,59.96475291058282,
north.png,stims/wedding-19.1a.mp4,stims/wedding-19.1b.mp4,stims/wedding-19.2b.mp4,stims/wedding-19.3b.mp4,stims/wedding-19.4b.mp4,stims/wedding-19.5.mp4,stimsday2details/newpainting14.png,stimsday2details/painting19.png,stimsday2details/newperson31.png,stimsday2details/couple19.png,stimsday2details/gift19.png,stimsday2details/new31.png,stimsday2details/cn19.png,stimsday2details/n19.png,stimsday2details/t19.png,stimsday2details/ct19.png,0,6,6,6,0,0,0,0,,,,,,,,,,,,,,,,,,,,,,,,,None,None,,,,,,,,,,,,,,,,,,,,,,,,,,,,,,,,,,,,,,,,,,,,,,,,,,,,,,,,,,,,,,,,,,,,,,,,,,,,,,,,,,,,,,,,,,,,,001,42,2020_Jan_24_1238,viewing,3.1.2,59.96475291058282,
north.png,stims/wedding-19.1a.mp4,stims/wedding-19.1b.mp4,stims/wedding-19.2b.mp4,stims/wedding-19.3b.mp4,stims/wedding-19.4b.mp4,stims/wedding-19.5.mp4,stimsday2details/newpainting14.png,stimsday2details/painting19.png,stimsday2details/newperson31.png,stimsday2details/couple19.png,stimsday2details/gift19.png,stimsday2details/new31.png,stimsday2details/cn19.png,stimsday2details/n19.png,stimsday2details/t19.png,stimsday2details/ct19.png,0,6,6,6,,,,,0,0,0,0,,,,,,,,,,,,,,,,,,,,,,,893.9718204094097,None,,,,,,,,,,,,,,,,,,,,,,,,,,,,,,,,,,,,,,,,,,,,,,,,,,,,,,,,,,,,,,,,,,,,,,,,,,,,,,,,,,,,,,,,,,,001,42,2020_Jan_24_1238,viewing,3.1.2,59.96475291058282,
north.png,stims/wedding-19.1a.mp4,stims/wedding-19.1b.mp4,stims/wedding-19.2b.mp4,stims/wedding-19.3b.mp4,stims/wedding-19.4b.mp4,stims/wedding-19.5.mp4,stimsday2details/newpainting14.png,stimsday2details/painting19.png,stimsday2details/newperson31.png,stimsday2details/couple19.png,stimsday2details/gift19.png,stimsday2details/new31.png,stimsday2details/cn19.png,stimsday2details/n19.png,stimsday2details/t19.png,stimsday2details/ct19.png,0,6,6,6,,,,,,,,,0,0,0,0,,,,,,,,,,,,,,,,,,,,,3.0493561113253236,None,904.4327843552455,929.3830196382478,929.3996091913432,None,938.3992501320317,955.3830483583733,955.3993232427165,978.3829226354137,978.3989598089829,None,1002.3987956913188,None,,,,,,,,,,,,,,,,,,,,,,,,,,,,,,,,,,,,,,,,,,,,,,,,,,,,,,,,,,,,,,,,,,,,,,,,,,,,,001,42,2020_Jan_24_1238,viewing,3.1.2,59.96475291058282,
north.png,stims/wedding-19.1a.mp4,stims/wedding-19.1b.mp4,stims/wedding-19.2b.mp4,stims/wedding-19.3b.mp4,stims/wedding-19.4b.mp4,stims/wedding-19.5.mp4,stimsday2details/newpainting14.png,stimsday2details/painting19.png,stimsday2details/newperson31.png,stimsday2details/couple19.png,stimsday2details/gift19.png,stimsday2details/new31.png,stimsday2details/cn19.png,stimsday2details/n19.png,stimsday2details/t19.png,stimsday2details/ct19.png,0,6,6,6,,,,,,,,,,,,,0,0,0,0,,,,,,,,,,,,,,,,,,,,,,,,,,,,,,,None,None,None,None,None,None,None,None,None,None,None,None,None,None,None,None,None,None,None,,None,None,None,,None,None,,,,,,,,,,,,,,,,,,,,,,,,,,,,,,,,,,,,,,,,,,,,,,,,,,,001,42,2020_Jan_24_1238,viewing,3.1.2,59.96475291058282,
north.png,stims/wedding-19.1a.mp4,stims/wedding-19.1b.mp4,stims/wedding-19.2b.mp4,stims/wedding-19.3b.mp4,stims/wedding-19.4b.mp4,stims/wedding-19.5.mp4,stimsday2details/newpainting14.png,stimsday2details/painting19.png,stimsday2details/newperson31.png,stimsday2details/couple19.png,stimsday2details/gift19.png,stimsday2details/new31.png,stimsday2details/cn19.png,stimsday2details/n19.png,stimsday2details/t19.png,stimsday2details/ct19.png,0,6,6,6,,,,,,,,,,,,,,,,,,,,,,,,,,,,,,,,,,,,,,,,,,,,,,,,,,,,,,,,,,,,,,,,,,,,,,,,,3.024563193321228e-05,None,None,,1026.7061508577317,None,1026.7061508577317,None,1026.7061508577317,None,1028.6976452823728,None,None,1028.6976452823728,None,1028.6976452823728,None,1030.6993150291964,None,1030.6993150291964,None,2,1.1396752232685685,1030.6993150291964,None,1,1.1845630183815956,1032.6988230869174,None,1032.6988230869174,None,1032.6988230869174,None,1034.699401974678,None,1034.699401974678,None,1,1.0894325533881783,1034.699401974678,None,1036.6989526683465,None,1036.6989526683465,None,2,1.268796213902533,1036.6989526683465,None,,001,42,2020_Jan_24_1238,viewing,3.1.2,59.96475291058282,
south.png,stims/wedding-23.1a.mp4,stims/wedding-23.1b.mp4,stims/wedding-23.2b.mp4,stims/wedding-23.3a.mp4,stims/wedding-23.4b.mp4,stims/wedding-23.5.mp4,stimsday2details/newpainting15.png,stimsday2details/painting23.png,stimsday2details/couple23.png,stimsday2details/newperson32.png,stimsday2details/new32.png,stimsday2details/gift23.png,stimsday2details/n23.png,stimsday2details/cn23.png,stimsday2details/ct23.png,stimsday2details/t23.png,0,7,7,7,0,0,0,0,,,,,,,,,,,,,,,,,,,,,,,,,1038.6988442875445,None,,,,,,,,,,,,,,,,,,,,,,,,,,,,,,,,,,,,,,,,,,,,,,,,,,,,,,,,,,,,,,,,,,,,,,,,,,,,,,,,,,,,,,,,,,,,,001,42,2020_Jan_24_1238,viewing,3.1.2,59.96475291058282,
south.png,stims/wedding-23.1a.mp4,stims/wedding-23.1b.mp4,stims/wedding-23.2b.mp4,stims/wedding-23.3a.mp4,stims/wedding-23.4b.mp4,stims/wedding-23.5.mp4,stimsday2details/newpainting15.png,stimsday2details/painting23.png,stimsday2details/couple23.png,stimsday2details/newperson32.png,stimsday2details/new32.png,stimsday2details/gift23.png,stimsday2details/n23.png,stimsday2details/cn23.png,stimsday2details/ct23.png,stimsday2details/t23.png,0,7,7,7,,,,,0,0,0,0,,,,,,,,,,,,,,,,,,,,,,,None,None,,,,,,,,,,,,,,,,,,,,,,,,,,,,,,,,,,,,,,,,,,,,,,,,,,,,,,,,,,,,,,,,,,,,,,,,,,,,,,,,,,,,,,,,,,,001,42,2020_Jan_24_1238,viewing,3.1.2,59.96475291058282,
south.png,stims/wedding-23.1a.mp4,stims/wedding-23.1b.mp4,stims/wedding-23.2b.mp4,stims/wedding-23.3a.mp4,stims/wedding-23.4b.mp4,stims/wedding-23.5.mp4,stimsday2details/newpainting15.png,stimsday2details/painting23.png,stimsday2details/couple23.png,stimsday2details/newperson32.png,stimsday2details/new32.png,stimsday2details/gift23.png,stimsday2details/n23.png,stimsday2details/cn23.png,stimsday2details/ct23.png,stimsday2details/t23.png,0,7,7,7,,,,,,,,,0,0,0,0,,,,,,,,,,,,,,,,,,,,,2.931371906772256,None,1048.9983835853636,1074.0638477066532,1074.0638477066532,None,1083.06465615239,None,1100.0807072194293,1123.064227274619,1123.0804244745523,None,1147.0794960996136,None,,,,,,,,,,,,,,,,,,,,,,,,,,,,,,,,,,,,,,,,,,,,,,,,,,,,,,,,,,,,,,,,,,,,,,,,,,,,,001,42,2020_Jan_24_1238,viewing,3.1.2,59.96475291058282,
south.png,stims/wedding-23.1a.mp4,stims/wedding-23.1b.mp4,stims/wedding-23.2b.mp4,stims/wedding-23.3a.mp4,stims/wedding-23.4b.mp4,stims/wedding-23.5.mp4,stimsday2details/newpainting15.png,stimsday2details/painting23.png,stimsday2details/couple23.png,stimsday2details/newperson32.png,stimsday2details/new32.png,stimsday2details/gift23.png,stimsday2details/n23.png,stimsday2details/cn23.png,stimsday2details/ct23.png,stimsday2details/t23.png,0,7,7,7,,,,,,,,,,,,,0,0,0,0,,,,,,,,,,,,,,,,,,,,,,,,,,,,,,,None,None,None,None,None,None,None,None,None,None,None,None,None,None,None,None,None,None,None,,None,None,None,,None,None,,,,,,,,,,,,,,,,,,,,,,,,,,,,,,,,,,,,,,,,,,,,,,,,,,,001,42,2020_Jan_24_1238,viewing,3.1.2,59.96475291058282,
south.png,stims/wedding-23.1a.mp4,stims/wedding-23.1b.mp4,stims/wedding-23.2b.mp4,stims/wedding-23.3a.mp4,stims/wedding-23.4b.mp4,stims/wedding-23.5.mp4,stimsday2details/newpainting15.png,stimsday2details/painting23.png,stimsday2details/couple23.png,stimsday2details/newperson32.png,stimsday2details/new32.png,stimsday2details/gift23.png,stimsday2details/n23.png,stimsday2details/cn23.png,stimsday2details/ct23.png,stimsday2details/t23.png,0,7,7,7,,,,,,,,,,,,,,,,,,,,,,,,,,,,,,,,,,,,,,,,,,,,,,,,,,,,,,,,,,,,,,,,,,,,,,,,,4.7653913497924805e-05,None,None,,1171.5934503590688,None,1171.5934503590688,None,1171.5934503590688,None,1173.5799849554896,None,None,1173.5799849554896,None,1173.5799849554896,None,1175.5802909294143,None,1175.5802909294143,None,None,,1175.5802909294143,None,None,,1177.5794816985726,None,1177.5794816985726,None,1177.5794816985726,None,1179.5631949445233,None,1179.5631949445233,None,None,,1179.5631949445233,None,1181.563796124421,None,1181.563796124421,None,2,0.7182937748730183,1181.563796124421,None,,001,42,2020_Jan_24_1238,viewing,3.1.2,59.96475291058282,
south.png,stims/wedding-38.1a.mp4,stims/wedding-38.1b.mp4,stims/wedding-38.2b.mp4,stims/wedding-38.3a.mp4,stims/wedding-38.4b.mp4,stims/wedding-38.5.mp4,stimsday2details/painting38.png,stimsday2details/newpainting16.png,stimsday2details/couple38.png,stimsday2details/newperson33.png,stimsday2details/gift38.png,stimsday2details/new33.png,stimsday2details/n38.png,stimsday2details/cn38.png,stimsday2details/t38.png,stimsday2details/ct38.png,0,8,8,8,0,0,0,0,,,,,,,,,,,,,,,,,,,,,,,,,1183.5627734409645,None,,,,,,,,,,,,,,,,,,,,,,,,,,,,,,,,,,,,,,,,,,,,,,,,,,,,,,,,,,,,,,,,,,,,,,,,,,,,,,,,,,,,,,,,,,,,,001,42,2020_Jan_24_1238,viewing,3.1.2,59.96475291058282,
south.png,stims/wedding-38.1a.mp4,stims/wedding-38.1b.mp4,stims/wedding-38.2b.mp4,stims/wedding-38.3a.mp4,stims/wedding-38.4b.mp4,stims/wedding-38.5.mp4,stimsday2details/painting38.png,stimsday2details/newpainting16.png,stimsday2details/couple38.png,stimsday2details/newperson33.png,stimsday2details/gift38.png,stimsday2details/new33.png,stimsday2details/n38.png,stimsday2details/cn38.png,stimsday2details/t38.png,stimsday2details/ct38.png,0,8,8,8,,,,,0,0,0,0,,,,,,,,,,,,,,,,,,,,,,,None,None,,,,,,,,,,,,,,,,,,,,,,,,,,,,,,,,,,,,,,,,,,,,,,,,,,,,,,,,,,,,,,,,,,,,,,,,,,,,,,,,,,,,,,,,,,,001,42,2020_Jan_24_1238,viewing,3.1.2,59.96475291058282,
south.png,stims/wedding-38.1a.mp4,stims/wedding-38.1b.mp4,stims/wedding-38.2b.mp4,stims/wedding-38.3a.mp4,stims/wedding-38.4b.mp4,stims/wedding-38.5.mp4,stimsday2details/painting38.png,stimsday2details/newpainting16.png,stimsday2details/couple38.png,stimsday2details/newperson33.png,stimsday2details/gift38.png,stimsday2details/new33.png,stimsday2details/n38.png,stimsday2details/cn38.png,stimsday2details/t38.png,stimsday2details/ct38.png,0,8,8,8,,,,,,,,,0,0,0,0,,,,,,,,,,,,,,,,,,,,,2.9015898518264294,None,1193.8790891068056,1218.979059224017,1218.9957085438073,None,1227.9956775885075,None,1244.9960774499923,1267.9787625968456,1267.9954376025125,None,1291.9958225432783,None,,,,,,,,,,,,,,,,,,,,,,,,,,,,,,,,,,,,,,,,,,,,,,,,,,,,,,,,,,,,,,,,,,,,,,,,,,,,,001,42,2020_Jan_24_1238,viewing,3.1.2,59.96475291058282,
south.png,stims/wedding-38.1a.mp4,stims/wedding-38.1b.mp4,stims/wedding-38.2b.mp4,stims/wedding-38.3a.mp4,stims/wedding-38.4b.mp4,stims/wedding-38.5.mp4,stimsday2details/painting38.png,stimsday2details/newpainting16.png,stimsday2details/couple38.png,stimsday2details/newperson33.png,stimsday2details/gift38.png,stimsday2details/new33.png,stimsday2details/n38.png,stimsday2details/cn38.png,stimsday2details/t38.png,stimsday2details/ct38.png,0,8,8,8,,,,,,,,,,,,,0,0,0,0,,,,,,,,,,,,,,,,,,,,,,,,,,,,,,,None,None,None,None,None,None,None,None,None,None,None,None,None,None,None,None,None,None,None,,None,None,None,,None,None,,,,,,,,,,,,,,,,,,,,,,,,,,,,,,,,,,,,,,,,,,,,,,,,,,,001,42,2020_Jan_24_1238,viewing,3.1.2,59.96475291058282,
south.png,stims/wedding-38.1a.mp4,stims/wedding-38.1b.mp4,stims/wedding-38.2b.mp4,stims/wedding-38.3a.mp4,stims/wedding-38.4b.mp4,stims/wedding-38.5.mp4,stimsday2details/painting38.png,stimsday2details/newpainting16.png,stimsday2details/couple38.png,stimsday2details/newperson33.png,stimsday2details/gift38.png,stimsday2details/new33.png,stimsday2details/n38.png,stimsday2details/cn38.png,stimsday2details/t38.png,stimsday2details/ct38.png,0,8,8,8,,,,,,,,,,,,,,,,,,,,,,,,,,,,,,,,,,,,,,,,,,,,,,,,,,,,,,,,,,,,,,,,,,,,,,,,,7.683131843805313e-05,None,1,1.4692238830029964,1315.9780407492071,None,1315.9780407492071,None,1315.9780407492071,None,1317.960810041055,None,1,1317.960810041055,None,1317.960810041055,None,1319.9619015557691,None,1319.9619015557691,None,1,0.8193055875599384,1319.9619015557691,None,1,1.2916599614545703,1321.9612290309742,None,1321.9612290309742,None,1321.9612290309742,None,1323.9613976897672,None,1323.9613976897672,None,1,1.0731326593086123,1323.9613976897672,None,1325.9662083694711,None,1325.9662083694711,None,1,1.1185141000896692,1325.9662083694711,None,1.8534317314624786,001,42,2020_Jan_24_1238,viewing,3.1.2,59.96475291058282,
north.png,stims/wedding-6.1a.mp4,stims/wedding-6.1b.mp4,stims/wedding-6.2b.mp4,stims/wedding-6.3b.mp4,stims/wedding-6.4b.mp4,stims/wedding-6.5.mp4,stimsday2details/painting6.png,stimsday2details/newpainting17.png,stimsday2details/newperson34.png,stimsday2details/couple6.png,stimsday2details/gift6.png,stimsday2details/new34.png,stimsday2details/n6.png,stimsday2details/cn6.png,stimsday2details/ct6.png,stimsday2details/t6.png,0,9,9,9,0,0,0,0,,,,,,,,,,,,,,,,,,,,,,,,,None,None,,,,,,,,,,,,,,,,,,,,,,,,,,,,,,,,,,,,,,,,,,,,,,,,,,,,,,,,,,,,,,,,,,,,,,,,,,,,,,,,,,,,,,,,,,,,,001,42,2020_Jan_24_1238,viewing,3.1.2,59.96475291058282,
north.png,stims/wedding-6.1a.mp4,stims/wedding-6.1b.mp4,stims/wedding-6.2b.mp4,stims/wedding-6.3b.mp4,stims/wedding-6.4b.mp4,stims/wedding-6.5.mp4,stimsday2details/painting6.png,stimsday2details/newpainting17.png,stimsday2details/newperson34.png,stimsday2details/couple6.png,stimsday2details/gift6.png,stimsday2details/new34.png,stimsday2details/n6.png,stimsday2details/cn6.png,stimsday2details/ct6.png,stimsday2details/t6.png,0,9,9,9,,,,,0,0,0,0,,,,,,,,,,,,,,,,,,,,,,,1328.3448017807677,None,,,,,,,,,,,,,,,,,,,,,,,,,,,,,,,,,,,,,,,,,,,,,,,,,,,,,,,,,,,,,,,,,,,,,,,,,,,,,,,,,,,,,,,,,,,001,42,2020_Jan_24_1238,viewing,3.1.2,59.96475291058282,
north.png,stims/wedding-6.1a.mp4,stims/wedding-6.1b.mp4,stims/wedding-6.2b.mp4,stims/wedding-6.3b.mp4,stims/wedding-6.4b.mp4,stims/wedding-6.5.mp4,stimsday2details/painting6.png,stimsday2details/newpainting17.png,stimsday2details/newperson34.png,stimsday2details/couple6.png,stimsday2details/gift6.png,stimsday2details/new34.png,stimsday2details/n6.png,stimsday2details/cn6.png,stimsday2details/ct6.png,stimsday2details/t6.png,0,9,9,9,,,,,,,,,0,0,0,0,,,,,,,,,,,,,,,,,,,,,2.8815872240811586,None,1338.4447793168947,1363.56019266136,1363.57720551081,None,1372.5786120612174,None,1389.5776576325297,1412.5605301279575,1412.5762570742518,None,1436.5762501908466,None,,,,,,,,,,,,,,,,,,,,,,,,,,,,,,,,,,,,,,,,,,,,,,,,,,,,,,,,,,,,,,,,,,,,,,,,,,,,,001,42,2020_Jan_24_1238,viewing,3.1.2,59.96475291058282,
north.png,stims/wedding-6.1a.mp4,stims/wedding-6.1b.mp4,stims/wedding-6.2b.mp4,stims/wedding-6.3b.mp4,stims/wedding-6.4b.mp4,stims/wedding-6.5.mp4,stimsday2details/painting6.png,stimsday2details/newpainting17.png,stimsday2details/newperson34.png,stimsday2details/couple6.png,stimsday2details/gift6.png,stimsday2details/new34.png,stimsday2details/n6.png,stimsday2details/cn6.png,stimsday2details/ct6.png,stimsday2details/t6.png,0,9,9,9,,,,,,,,,,,,,0,0,0,0,,,,,,,,,,,,,,,,,,,,,,,,,,,,,,,None,None,None,None,None,None,None,None,None,None,None,None,None,None,None,None,None,None,None,,None,None,None,,None,None,,,,,,,,,,,,,,,,,,,,,,,,,,,,,,,,,,,,,,,,,,,,,,,,,,,001,42,2020_Jan_24_1238,viewing,3.1.2,59.96475291058282,
north.png,stims/wedding-6.1a.mp4,stims/wedding-6.1b.mp4,stims/wedding-6.2b.mp4,stims/wedding-6.3b.mp4,stims/wedding-6.4b.mp4,stims/wedding-6.5.mp4,stimsday2details/painting6.png,stimsday2details/newpainting17.png,stimsday2details/newperson34.png,stimsday2details/couple6.png,stimsday2details/gift6.png,stimsday2details/new34.png,stimsday2details/n6.png,stimsday2details/cn6.png,stimsday2details/ct6.png,stimsday2details/t6.png,0,9,9,9,,,,,,,,,,,,,,,,,,,,,,,,,,,,,,,,,,,,,,,,,,,,,,,,,,,,,,,,,,,,,,,,,,,,,,,,,4.043988883495331e-05,None,1,0.9433149853721261,1460.584965501912,None,1460.584965501912,None,1460.584965501912,None,1462.5761445024982,None,1,1462.5761445024982,None,1462.5761445024982,None,1464.5817607361823,None,1464.5817607361823,None,2,1.7805203534662724,1464.5817607361823,None,2,1.1730749104171991,1466.5765240164474,None,1466.5765240164474,None,1466.5765240164474,None,1468.5757105629891,None,1468.5757105629891,None,1,1.03647349961102,1468.5757105629891,None,1470.5762242497876,None,1470.5762242497876,None,1,1.1519269244745374,1470.5762242497876,None,0.969259774312377,001,42,2020_Jan_24_1238,viewing,3.1.2,59.96475291058282,
north.png,stims/wedding-22.1a.mp4,stims/wedding-22.1b.mp4,stims/wedding-22.2a.mp4,stims/wedding-22.3a.mp4,stims/wedding-22.4a.mp4,stims/wedding-22.5.mp4,stimsday2details/newegg18.png,stimsday2details/egg22.png,stimsday2details/newperson35.png,stimsday2details/couple22.png,stimsday2details/new35.png,stimsday2details/gift22.png,stimsday2details/n22.png,stimsday2details/cn22.png,stimsday2details/t22.png,stimsday2details/ct22.png,0,10,10,10,0,0,0,0,,,,,,,,,,,,,,,,,,,,,,,,,None,None,,,,,,,,,,,,,,,,,,,,,,,,,,,,,,,,,,,,,,,,,,,,,,,,,,,,,,,,,,,,,,,,,,,,,,,,,,,,,,,,,,,,,,,,,,,,,001,42,2020_Jan_24_1238,viewing,3.1.2,59.96475291058282,
north.png,stims/wedding-22.1a.mp4,stims/wedding-22.1b.mp4,stims/wedding-22.2a.mp4,stims/wedding-22.3a.mp4,stims/wedding-22.4a.mp4,stims/wedding-22.5.mp4,stimsday2details/newegg18.png,stimsday2details/egg22.png,stimsday2details/newperson35.png,stimsday2details/couple22.png,stimsday2details/new35.png,stimsday2details/gift22.png,stimsday2details/n22.png,stimsday2details/cn22.png,stimsday2details/t22.png,stimsday2details/ct22.png,0,10,10,10,,,,,0,0,0,0,,,,,,,,,,,,,,,,,,,,,,,1472.8264569854364,None,,,,,,,,,,,,,,,,,,,,,,,,,,,,,,,,,,,,,,,,,,,,,,,,,,,,,,,,,,,,,,,,,,,,,,,,,,,,,,,,,,,,,,,,,,,001,42,2020_Jan_24_1238,viewing,3.1.2,59.96475291058282,
north.png,stims/wedding-22.1a.mp4,stims/wedding-22.1b.mp4,stims/wedding-22.2a.mp4,stims/wedding-22.3a.mp4,stims/wedding-22.4a.mp4,stims/wedding-22.5.mp4,stimsday2details/newegg18.png,stimsday2details/egg22.png,stimsday2details/newperson35.png,stimsday2details/couple22.png,stimsday2details/new35.png,stimsday2details/gift22.png,stimsday2details/n22.png,stimsday2details/cn22.png,stimsday2details/t22.png,stimsday2details/ct22.png,0,10,10,10,,,,,,,,,0,0,0,0,,,,,,,,,,,,,,,,,,,,,3.069990365765989,None,1483.1424846164882,1508.0758429104462,1508.0917561557144,None,1517.0926549723372,1534.075858771801,1534.0918225459754,1557.0756382234395,1557.091086591594,1581.0746520170942,1581.0912700090557,None,,,,,,,,,,,,,,,,,,,,,,,,,,,,,,,,,,,,,,,,,,,,,,,,,,,,,,,,,,,,,,,,,,,,,,,,,,,,,001,42,2020_Jan_24_1238,viewing,3.1.2,59.96475291058282,
north.png,stims/wedding-22.1a.mp4,stims/wedding-22.1b.mp4,stims/wedding-22.2a.mp4,stims/wedding-22.3a.mp4,stims/wedding-22.4a.mp4,stims/wedding-22.5.mp4,stimsday2details/newegg18.png,stimsday2details/egg22.png,stimsday2details/newperson35.png,stimsday2details/couple22.png,stimsday2details/new35.png,stimsday2details/gift22.png,stimsday2details/n22.png,stimsday2details/cn22.png,stimsday2details/t22.png,stimsday2details/ct22.png,0,10,10,10,,,,,,,,,,,,,0,0,0,0,,,,,,,,,,,,,,,,,,,,,,,,,,,,,,,None,None,None,None,None,None,None,None,None,None,None,None,None,None,None,None,None,None,None,,None,None,None,,None,None,,,,,,,,,,,,,,,,,,,,,,,,,,,,,,,,,,,,,,,,,,,,,,,,,,,001,42,2020_Jan_24_1238,viewing,3.1.2,59.96475291058282,
north.png,stims/wedding-22.1a.mp4,stims/wedding-22.1b.mp4,stims/wedding-22.2a.mp4,stims/wedding-22.3a.mp4,stims/wedding-22.4a.mp4,stims/wedding-22.5.mp4,stimsday2details/newegg18.png,stimsday2details/egg22.png,stimsday2details/newperson35.png,stimsday2details/couple22.png,stimsday2details/new35.png,stimsday2details/gift22.png,stimsday2details/n22.png,stimsday2details/cn22.png,stimsday2details/t22.png,stimsday2details/ct22.png,0,10,10,10,,,,,,,,,,,,,,,,,,,,,,,,,,,,,,,,,,,,,,,,,,,,,,,,,,,,,,,,,,,,,,,,,,,,,,,,,2.6473775506019592e-05,None,None,,1605.2308446243405,None,1605.2308446243405,None,1605.2308446243405,None,1607.2242057584226,None,None,1607.2242057584226,None,1607.2242057584226,None,1609.2253321195021,None,1609.2253321195021,None,None,,1609.2253321195021,None,None,,1611.2282919045538,None,1611.2282919045538,None,1611.2282919045538,None,1613.2241650698707,None,1613.2241650698707,None,None,,1613.2241650698707,None,1615.2244483130053,None,1615.2244483130053,None,None,,1615.2244483130053,None,,001,42,2020_Jan_24_1238,viewing,3.1.2,59.96475291058282,
south.png,stims/wedding-29.1a.mp4,stims/wedding-29.1b.mp4,stims/wedding-29.2b.mp4,stims/wedding-29.3a.mp4,stims/wedding-29.4b.mp4,stims/wedding-29.5.mp4,stimsday2details/newpainting18.png,stimsday2details/painting29.png,stimsday2details/newperson36.png,stimsday2details/couple29.png,stimsday2details/new36.png,stimsday2details/gift29.png,stimsday2details/n29.png,stimsday2details/cn29.png,stimsday2details/t29.png,stimsday2details/ct29.png,0,11,11,11,0,0,0,0,,,,,,,,,,,,,,,,,,,,,,,,,1617.2282576160505,None,,,,,,,,,,,,,,,,,,,,,,,,,,,,,,,,,,,,,,,,,,,,,,,,,,,,,,,,,,,,,,,,,,,,,,,,,,,,,,,,,,,,,,,,,,,,,001,42,2020_Jan_24_1238,viewing,3.1.2,59.96475291058282,
south.png,stims/wedding-29.1a.mp4,stims/wedding-29.1b.mp4,stims/wedding-29.2b.mp4,stims/wedding-29.3a.mp4,stims/wedding-29.4b.mp4,stims/wedding-29.5.mp4,stimsday2details/newpainting18.png,stimsday2details/painting29.png,stimsday2details/newperson36.png,stimsday2details/couple29.png,stimsday2details/new36.png,stimsday2details/gift29.png,stimsday2details/n29.png,stimsday2details/cn29.png,stimsday2details/t29.png,stimsday2details/ct29.png,0,11,11,11,,,,,0,0,0,0,,,,,,,,,,,,,,,,,,,,,,,None,None,,,,,,,,,,,,,,,,,,,,,,,,,,,,,,,,,,,,,,,,,,,,,,,,,,,,,,,,,,,,,,,,,,,,,,,,,,,,,,,,,,,,,,,,,,,001,42,2020_Jan_24_1238,viewing,3.1.2,59.96475291058282,
south.png,stims/wedding-29.1a.mp4,stims/wedding-29.1b.mp4,stims/wedding-29.2b.mp4,stims/wedding-29.3a.mp4,stims/wedding-29.4b.mp4,stims/wedding-29.5.mp4,stimsday2details/newpainting18.png,stimsday2details/painting29.png,stimsday2details/newperson36.png,stimsday2details/couple29.png,stimsday2details/new36.png,stimsday2details/gift29.png,stimsday2details/n29.png,stimsday2details/cn29.png,stimsday2details/t29.png,stimsday2details/ct29.png,0,11,11,11,,,,,,,,,0,0,0,0,,,,,,,,,,,,,,,,,,,,,None,None,None,None,None,None,None,None,None,None,None,None,None,None,,,,,,,,,,,,,,,,,,,,,,,,,,,,,,,,,,,,,,,,,,,,,,,,,,,,,,,,,,,,,,,,,,,,,,,,,,,,,001,42,2020_Jan_24_1238,viewing,3.1.2,59.96475291058282,
south.png,stims/wedding-29.1a.mp4,stims/wedding-29.1b.mp4,stims/wedding-29.2b.mp4,stims/wedding-29.3a.mp4,stims/wedding-29.4b.mp4,stims/wedding-29.5.mp4,stimsday2details/newpainting18.png,stimsday2details/painting29.png,stimsday2details/newperson36.png,stimsday2details/couple29.png,stimsday2details/new36.png,stimsday2details/gift29.png,stimsday2details/n29.png,stimsday2details/cn29.png,stimsday2details/t29.png,stimsday2details/ct29.png,0,11,11,11,,,,,,,,,,,,,0,0,0,0,,,,,,,,,,,,,,,,,,,,,,,,,,,,,,,2.745020448230207,None,1630.5740958433598,None,1655.8410220053047,None,1664.8401434635743,None,1681.8399532027543,1685.8236051844433,1685.8401385759935,None,1708.8399117793888,1712.827883116901,1712.8402870558202,None,1736.8402416668832,None,"['3', '2']","[2.7522883247584105, 4.774215403012931]",1680.8396096182987,1685.8236051844433,['2'],[2.4395924508571625],1707.8403486367315,1712.827883116901,,,,,,,,,,,,,,,,,,,,,,,,,,,,,,,,,,,,,,,,,,,,,,,,,,,001,42,2020_Jan_24_1238,viewing,3.1.2,59.96475291058282,
south.png,stims/wedding-29.1a.mp4,stims/wedding-29.1b.mp4,stims/wedding-29.2b.mp4,stims/wedding-29.3a.mp4,stims/wedding-29.4b.mp4,stims/wedding-29.5.mp4,stimsday2details/newpainting18.png,stimsday2details/painting29.png,stimsday2details/newperson36.png,stimsday2details/couple29.png,stimsday2details/new36.png,stimsday2details/gift29.png,stimsday2details/n29.png,stimsday2details/cn29.png,stimsday2details/t29.png,stimsday2details/ct29.png,0,11,11,11,,,,,,,,,,,,,,,,,,,,,,,,,,,,,,,,,,,,,,,,,,,,,,,,,,,,,,,,,,,,,,,,,,,,,,,,,3.15224751830101e-05,None,1,0.8211043374612927,1757.4197961399332,None,1757.4197961399332,None,1757.4197961399332,None,1759.4051970671862,None,2,1759.4051970671862,None,1759.4051970671862,None,1761.4054199093953,None,1761.4054199093953,None,2,1.0110600413754582,1761.4054199093953,None,None,,1763.4105632938445,None,1763.4105632938445,None,1763.4105632938445,None,1765.4106921702623,None,1765.4106921702623,None,2,1.6230523390695453,1765.4106921702623,None,1767.4059949843213,None,1767.4059949843213,None,1,1.0855315821245313,1767.4059949843213,None,1.2863513147458434,001,42,2020_Jan_24_1238,viewing,3.1.2,59.96475291058282,
