condsFile,northOrSouth,stimFile1a,stimFile1b,stimFile2,stimFile3,stimFile4,stimFile5,QeggPainting1,Qcharacter1,Qgift1,QeggPainting2,Qcharacter2,Qgift2,Qname1,Qtheme1,Qname2,Qtheme2,block.thisRepN,block.thisTrialN,block.thisN,block.thisIndex,trials.thisRepN,trials.thisTrialN,trials.thisN,trials.thisIndex,noQtrials.thisRepN,noQtrials.thisTrialN,noQtrials.thisN,noQtrials.thisIndex,Qtrials.thisRepN,Qtrials.thisTrialN,Qtrials.thisN,Qtrials.thisIndex,text.started,text.stopped,prep_trigger.keys,prep_trigger.rt,prep_trigger.started,prep_trigger.stopped,waiting.started,waiting.stopped,trigger.keys,trigger.rt,trigger.started,trigger.stopped,image_3.started,image_3.stopped,trialNoQs.started,trialNoQs.stopped,vid1a.started,vid1a.stopped,vid1b.started,vid1b.stopped,vid2.started,vid2.stopped,vid3.started,vid3.stopped,vid4.started,vid4.stopped,vid5.started,vid5.stopped,ISI2.started,ISI2.stopped,vid1a_q.started,vid1a_q.stopped,vid1b_q.started,vid1b_q.stopped,vid2_q.started,vid2_q.stopped,l2q.started,l2q.stopped,vid3_q.started,vid3_q.stopped,l3q.started,l3q.stopped,vid4_q.started,vid4_q.stopped,vid5_q.started,vid5_q.stopped,key_resp_2.keys,key_resp_2.rt,key_resp_2.started,key_resp_2.stopped,key_resp_3.keys,key_resp_3.rt,key_resp_3.started,key_resp_3.stopped,ISI7.started,ISI7.stopped,nameQresp.keys,nameQresp.rt,nameQresp.started,nameQresp.stopped,nameQ1.started,nameQ1.stopped,nameQ2.started,nameQ2.stopped,eggPainting1.started,eggPainting1.stopped,eggPaintingQresp.keys,eggPaintingQresp.rt,eggPaintingQresp.started,eggPaintingQresp.stopped,eggPainting2.started,eggPainting2.stopped,character1.started,character1.stopped,character2.started,character2.stopped,Qcharacter.keys,Qcharacter.rt,Qcharacter.started,Qcharacter.stopped,themeQresp.keys,themeQresp.rt,themeQresp.started,themeQresp.stopped,themeQ1.started,themeQ1.stopped,themeQ2.started,themeQ2.stopped,gift1.started,gift1.stopped,gift2.started,gift2.stopped,giftQresp.keys,giftQresp.rt,giftQresp.started,giftQresp.stopped,northorsouth1.started,northorsouth1.stopped,northOrSouthQ.keys,northOrSouthQ.rt,northOrSouthQ.started,northOrSouthQ.stopped,northorsouth2.started,northorsouth2.stopped,session,participant,date,expName,psychopyVersion,frameRate,
,,,,,,,,,,,,,,,,,,,,,,,,,,,,,,,,,,7.260771917179227,None,g,0.3379164645448327,7.260771917179227,None,,,,,,,,,,,,,,,,,,,,,,,,,,,,,,,,,,,,,,,,,,,,,,,,,,,,,,,,,,,,,,,,,,,,,,,,,,,,,,,,,,,,,,,,,,,,,,,,,,,001,44,2020_Jan_28_1018,Block4,3.1.2,59.994388561283046,
,,,,,,,,,,,,,,,,,,,,,,,,,,,,,,,,,,,,,,,,7.609888207167387,None,equal,18.224112974479795,7.609888207167387,None,,,,,,,,,,,,,,,,,,,,,,,,,,,,,,,,,,,,,,,,,,,,,,,,,,,,,,,,,,,,,,,,,,,,,,,,,,,,,,,,,,,,,,,,,,,,,001,44,2020_Jan_28_1018,Block4,3.1.2,59.994388561283046,
videoBlock_schemaN_pathB_4.csv,north.png,stims/wedding-12.1a.mp4,stims/wedding-12.1b.mp4,stims/wedding-12.2b.mp4,stims/wedding-12.3b.mp4,stims/wedding-12.4b.mp4,stims/wedding-12.5.mp4,stimsday1details/painting12.png,stimsday1details/couple12.png,stimsday1details/gift12.png,stimsday1details/newpainting4.png,stimsday1details/newperson16.png,stimsday1details/new16.png,stimsday1details/n12.png,stimsday1details/t12.png,stimsday1details/cn12.png,stimsday1details/ct12.png,0,0,0,3,0,0,0,0,0,0,0,0,,,,,,,,,,,,,,,,,25.86720729805529,None,None,None,None,None,None,None,None,None,None,None,None,None,None,None,,,,,,,,,,,,,,,,,,,,,,,,,,,,,,,,,,,,,,,,,,,,,,,,,,,,,,,,,,,,,,,,,,,,,,,,,,,,,001,44,2020_Jan_28_1018,Block4,3.1.2,59.994388561283046,
videoBlock_schemaN_pathB_4.csv,north.png,stims/wedding-12.1a.mp4,stims/wedding-12.1b.mp4,stims/wedding-12.2b.mp4,stims/wedding-12.3b.mp4,stims/wedding-12.4b.mp4,stims/wedding-12.5.mp4,stimsday1details/painting12.png,stimsday1details/couple12.png,stimsday1details/gift12.png,stimsday1details/newpainting4.png,stimsday1details/newperson16.png,stimsday1details/new16.png,stimsday1details/n12.png,stimsday1details/t12.png,stimsday1details/cn12.png,stimsday1details/ct12.png,0,0,0,3,0,0,0,0,,,,,0,0,0,0,,,,,,,,,,,,,,,,,,,,,,,,,,,,,2.5494750132784247,None,38.16073730494827,54.609926593489945,54.62659857515246,None,63.62728101480752,None,80.63038518931717,84.6115061417222,84.6115061417222,107.60968537814915,107.62623054347932,111.6092289518565,111.6255249818787,None,135.61387943755835,None,['2'],[2.3572285026311874],79.62650701031089,84.6115061417222,['2'],[3.5685857934877276],106.62655404675752,111.6092289518565,,,,,,,,,,,,,,,,,,,,,,,,,,,,,,,,,,,,,,,,,,,,,,,,,,,001,44,2020_Jan_28_1018,Block4,3.1.2,59.994388561283046,
videoBlock_schemaN_pathB_4.csv,north.png,stims/wedding-12.1a.mp4,stims/wedding-12.1b.mp4,stims/wedding-12.2b.mp4,stims/wedding-12.3b.mp4,stims/wedding-12.4b.mp4,stims/wedding-12.5.mp4,stimsday1details/painting12.png,stimsday1details/couple12.png,stimsday1details/gift12.png,stimsday1details/newpainting4.png,stimsday1details/newperson16.png,stimsday1details/new16.png,stimsday1details/n12.png,stimsday1details/t12.png,stimsday1details/cn12.png,stimsday1details/ct12.png,0,0,0,3,0,0,0,0,,,,,,,,,,,,,,,,,,,,,,,,,,,,,,,,,,,,,,,,,,,,,,,,,,,,,,,,,,,,,,,2.7643516659736633e-05,None,1,1.1227927561849356,149.80890880245715,None,149.80890880245715,None,149.80890880245715,None,151.79162138421088,None,1,0.7231769487261772,151.79162138421088,None,151.79162138421088,None,153.79263168945909,None,153.79263168945909,None,1,0.756386280991137,153.79263168945909,None,1,0.9021088918671012,155.79620771761984,None,155.79620771761984,None,155.79620771761984,None,157.79631521366537,None,157.79631521366537,None,1,0.7182159693911672,157.79631521366537,None,159.7925905296579,None,1,0.6179916579276323,159.7925905296579,None,159.7925905296579,None,001,44,2020_Jan_28_1018,Block4,3.1.2,59.994388561283046,
videoBlock_schemaN_pathB_5.csv,north.png,stims/wedding-18.1a.mp4,stims/wedding-18.1b.mp4,stims/wedding-18.2b.mp4,stims/wedding-18.3b.mp4,stims/wedding-18.4b.mp4,stims/wedding-18.5.mp4,stimsday1details/newpainting5.png,stimsday1details/couple18.png,stimsday1details/new17.png,stimsday1details/painting18.png,stimsday1details/newperson17.png,stimsday1details/gift18.png,stimsday1details/cn18.png,stimsday1details/t18.png,stimsday1details/n18.png,stimsday1details/ct18.png,0,1,1,4,0,0,0,0,0,0,0,0,,,,,,,,,,,,,,,,,161.97527668066323,None,2.878451448865235,None,171.85794711019844,187.97939887456596,187.9918754659593,195.97511590458453,195.99086210504174,None,212.9915687823668,235.97365704923868,235.99036321230233,259.97353932633996,259.99122112896293,None,,,,,,,,,,,,,,,,,,,,,,,,,,,,,,,,,,,,,,,,,,,,,,,,,,,,,,,,,,,,,,,,,,,,,,,,,,,,,001,44,2020_Jan_28_1018,Block4,3.1.2,59.994388561283046,
videoBlock_schemaN_pathB_5.csv,north.png,stims/wedding-18.1a.mp4,stims/wedding-18.1b.mp4,stims/wedding-18.2b.mp4,stims/wedding-18.3b.mp4,stims/wedding-18.4b.mp4,stims/wedding-18.5.mp4,stimsday1details/newpainting5.png,stimsday1details/couple18.png,stimsday1details/new17.png,stimsday1details/painting18.png,stimsday1details/newperson17.png,stimsday1details/gift18.png,stimsday1details/cn18.png,stimsday1details/t18.png,stimsday1details/n18.png,stimsday1details/ct18.png,0,1,1,4,0,0,0,0,,,,,0,0,0,0,,,,,,,,,,,,,,,,,,,,,,,,,,,,,None,None,None,None,None,None,None,None,None,None,None,None,None,None,None,None,None,None,None,,None,None,None,,None,None,,,,,,,,,,,,,,,,,,,,,,,,,,,,,,,,,,,,,,,,,,,,,,,,,,,001,44,2020_Jan_28_1018,Block4,3.1.2,59.994388561283046,
videoBlock_schemaN_pathB_5.csv,north.png,stims/wedding-18.1a.mp4,stims/wedding-18.1b.mp4,stims/wedding-18.2b.mp4,stims/wedding-18.3b.mp4,stims/wedding-18.4b.mp4,stims/wedding-18.5.mp4,stimsday1details/newpainting5.png,stimsday1details/couple18.png,stimsday1details/new17.png,stimsday1details/painting18.png,stimsday1details/newperson17.png,stimsday1details/gift18.png,stimsday1details/cn18.png,stimsday1details/t18.png,stimsday1details/n18.png,stimsday1details/ct18.png,0,1,1,4,0,0,0,0,,,,,,,,,,,,,,,,,,,,,,,,,,,,,,,,,,,,,,,,,,,,,,,,,,,,,,,,,,,,,,,3.498326987028122e-05,None,None,,277.95678253192455,None,277.95678253192455,None,277.95678253192455,None,279.95686806738377,None,2,0.6849945187568665,279.95686806738377,None,279.95686806738377,None,281.9566862406209,None,281.9566862406209,None,1,0.6734778182581067,281.9566862406209,None,1,0.9182975878939033,283.9578126491979,None,283.9578126491979,None,283.9578126491979,None,285.96136595029384,None,285.96136595029384,None,2,0.6013642800971866,285.96136595029384,None,287.9614750528708,None,1,0.6316006053239107,287.9614750528708,None,287.9614750528708,None,001,44,2020_Jan_28_1018,Block4,3.1.2,59.994388561283046,
videoBlock_schemaN_pathA_6.csv,north.png,stims/wedding-40.1a.mp4,stims/wedding-40.1b.mp4,stims/wedding-40.2a.mp4,stims/wedding-40.3a.mp4,stims/wedding-40.4a.mp4,stims/wedding-40.5.mp4,stimsday1details/newegg6.png,stimsday1details/newperson6.png,stimsday1details/new6.png,stimsday1details/egg40.png,stimsday1details/couple40.png,stimsday1details/gift40.png,stimsday1details/n40.png,stimsday1details/t40.png,stimsday1details/cn40.png,stimsday1details/ct40.png,0,2,2,2,0,0,0,0,0,0,0,0,,,,,,,,,,,,,,,,,290.17446251399815,None,2.7183392057195306,None,299.89017992746085,316.1782564204186,316.19399874284863,None,324.1903546862304,None,341.1897929366678,364.1726687224582,364.1898859376088,None,388.189210803248,None,,,,,,,,,,,,,,,,,,,,,,,,,,,,,,,,,,,,,,,,,,,,,,,,,,,,,,,,,,,,,,,,,,,,,,,,,,,,,001,44,2020_Jan_28_1018,Block4,3.1.2,59.994388561283046,
videoBlock_schemaN_pathA_6.csv,north.png,stims/wedding-40.1a.mp4,stims/wedding-40.1b.mp4,stims/wedding-40.2a.mp4,stims/wedding-40.3a.mp4,stims/wedding-40.4a.mp4,stims/wedding-40.5.mp4,stimsday1details/newegg6.png,stimsday1details/newperson6.png,stimsday1details/new6.png,stimsday1details/egg40.png,stimsday1details/couple40.png,stimsday1details/gift40.png,stimsday1details/n40.png,stimsday1details/t40.png,stimsday1details/cn40.png,stimsday1details/ct40.png,0,2,2,2,0,0,0,0,,,,,0,0,0,0,,,,,,,,,,,,,,,,,,,,,,,,,,,,,None,None,None,None,None,None,None,None,None,None,None,None,None,None,None,None,None,None,None,,None,None,None,,None,None,,,,,,,,,,,,,,,,,,,,,,,,,,,,,,,,,,,,,,,,,,,,,,,,,,,001,44,2020_Jan_28_1018,Block4,3.1.2,59.994388561283046,
videoBlock_schemaN_pathA_6.csv,north.png,stims/wedding-40.1a.mp4,stims/wedding-40.1b.mp4,stims/wedding-40.2a.mp4,stims/wedding-40.3a.mp4,stims/wedding-40.4a.mp4,stims/wedding-40.5.mp4,stimsday1details/newegg6.png,stimsday1details/newperson6.png,stimsday1details/new6.png,stimsday1details/egg40.png,stimsday1details/couple40.png,stimsday1details/gift40.png,stimsday1details/n40.png,stimsday1details/t40.png,stimsday1details/cn40.png,stimsday1details/ct40.png,0,2,2,2,0,0,0,0,,,,,,,,,,,,,,,,,,,,,,,,,,,,,,,,,,,,,,,,,,,,,,,,,,,,,,,,,,,,,,,4.245992749929428e-05,None,1,1.385745140723884,406.12179720774293,None,406.12179720774293,None,406.12179720774293,None,408.12161826714873,None,2,0.857515687122941,408.12161826714873,None,408.12161826714873,None,410.1222069924697,None,410.1222069924697,None,2,0.8020446812734008,410.1222069924697,None,1,0.6408707015216351,412.12189968675375,None,412.12189968675375,None,412.12189968675375,None,414.12726523540914,None,414.12726523540914,None,2,0.651419130153954,414.12726523540914,None,416.10959248337895,None,1,0.3362433463335037,416.10959248337895,None,416.10959248337895,None,001,44,2020_Jan_28_1018,Block4,3.1.2,59.994388561283046,
videoBlock_schemaN_pathA_5.csv,north.png,stims/wedding-15.1a.mp4,stims/wedding-15.1b.mp4,stims/wedding-15.2a.mp4,stims/wedding-15.3a.mp4,stims/wedding-15.4a.mp4,stims/wedding-15.5.mp4,stimsday1details/egg15.png,stimsday1details/couple15.png,stimsday1details/gift15.png,stimsday1details/newegg5.png,stimsday1details/newperson5.png,stimsday1details/new5.png,stimsday1details/n15.png,stimsday1details/t15.png,stimsday1details/cn15.png,stimsday1details/ct15.png,0,3,3,1,0,0,0,0,0,0,0,0,,,,,,,,,,,,,,,,,418.355760730803,None,2.8460866529494524,None,428.20485852845013,444.35499625559896,444.3723474405706,452.3555527366698,452.3717613024637,None,469.3719879053533,492.35944449622184,492.37202069628984,516.3540316158906,516.3704182812944,None,,,,,,,,,,,,,,,,,,,,,,,,,,,,,,,,,,,,,,,,,,,,,,,,,,,,,,,,,,,,,,,,,,,,,,,,,,,,,001,44,2020_Jan_28_1018,Block4,3.1.2,59.994388561283046,
videoBlock_schemaN_pathA_5.csv,north.png,stims/wedding-15.1a.mp4,stims/wedding-15.1b.mp4,stims/wedding-15.2a.mp4,stims/wedding-15.3a.mp4,stims/wedding-15.4a.mp4,stims/wedding-15.5.mp4,stimsday1details/egg15.png,stimsday1details/couple15.png,stimsday1details/gift15.png,stimsday1details/newegg5.png,stimsday1details/newperson5.png,stimsday1details/new5.png,stimsday1details/n15.png,stimsday1details/t15.png,stimsday1details/cn15.png,stimsday1details/ct15.png,0,3,3,1,0,0,0,0,,,,,0,0,0,0,,,,,,,,,,,,,,,,,,,,,,,,,,,,,None,None,None,None,None,None,None,None,None,None,None,None,None,None,None,None,None,None,None,,None,None,None,,None,None,,,,,,,,,,,,,,,,,,,,,,,,,,,,,,,,,,,,,,,,,,,,,,,,,,,001,44,2020_Jan_28_1018,Block4,3.1.2,59.994388561283046,
videoBlock_schemaN_pathA_5.csv,north.png,stims/wedding-15.1a.mp4,stims/wedding-15.1b.mp4,stims/wedding-15.2a.mp4,stims/wedding-15.3a.mp4,stims/wedding-15.4a.mp4,stims/wedding-15.5.mp4,stimsday1details/egg15.png,stimsday1details/couple15.png,stimsday1details/gift15.png,stimsday1details/newegg5.png,stimsday1details/newperson5.png,stimsday1details/new5.png,stimsday1details/n15.png,stimsday1details/t15.png,stimsday1details/cn15.png,stimsday1details/ct15.png,0,3,3,1,0,0,0,0,,,,,,,,,,,,,,,,,,,,,,,,,,,,,,,,,,,,,,,,,,,,,,,,,,,,,,,,,,,,,,,3.773067146539688e-05,None,1,0.7010220745578408,534.5055318865925,None,534.5055318865925,None,534.5055318865925,None,536.5032076360658,None,1,0.7358478307723999,536.5032076360658,None,536.5032076360658,None,538.5076370975003,None,538.5076370975003,None,1,0.6989456340670586,538.5076370975003,None,1,0.9184433221817017,540.503676016815,None,540.503676016815,None,540.503676016815,None,542.508077012375,None,542.508077012375,None,1,0.7314399443566799,542.508077012375,None,544.5071820700541,None,1,0.38172149658203125,544.5071820700541,None,544.5071820700541,None,001,44,2020_Jan_28_1018,Block4,3.1.2,59.994388561283046,
videoBlock_schemaN_pathA_4.csv,north.png,stims/wedding-13.1a.mp4,stims/wedding-13.1b.mp4,stims/wedding-13.2a.mp4,stims/wedding-13.3a.mp4,stims/wedding-13.4a.mp4,stims/wedding-13.5.mp4,stimsday1details/egg13.png,stimsday1details/couple13.png,stimsday1details/new4.png,stimsday1details/newegg4.png,stimsday1details/newperson4.png,stimsday1details/gift13.png,stimsday1details/n13.png,stimsday1details/ct13.png,stimsday1details/cn13.png,stimsday1details/t13.png,0,4,4,0,0,0,0,0,0,0,0,0,,,,,,,,,,,,,,,,,546.7873189495876,None,2.74120737798512,None,556.5203371457756,None,572.8039127774537,580.7871266845614,580.803032499738,597.7857946017757,597.802555766888,620.7916484577581,620.8045977503061,644.7862758925185,644.8030486218631,None,,,,,,,,,,,,,,,,,,,,,,,,,,,,,,,,,,,,,,,,,,,,,,,,,,,,,,,,,,,,,,,,,,,,,,,,,,,,,001,44,2020_Jan_28_1018,Block4,3.1.2,59.994388561283046,
videoBlock_schemaN_pathA_4.csv,north.png,stims/wedding-13.1a.mp4,stims/wedding-13.1b.mp4,stims/wedding-13.2a.mp4,stims/wedding-13.3a.mp4,stims/wedding-13.4a.mp4,stims/wedding-13.5.mp4,stimsday1details/egg13.png,stimsday1details/couple13.png,stimsday1details/new4.png,stimsday1details/newegg4.png,stimsday1details/newperson4.png,stimsday1details/gift13.png,stimsday1details/n13.png,stimsday1details/ct13.png,stimsday1details/cn13.png,stimsday1details/t13.png,0,4,4,0,0,0,0,0,,,,,0,0,0,0,,,,,,,,,,,,,,,,,,,,,,,,,,,,,None,None,None,None,None,None,None,None,None,None,None,None,None,None,None,None,None,None,None,,None,None,None,,None,None,,,,,,,,,,,,,,,,,,,,,,,,,,,,,,,,,,,,,,,,,,,,,,,,,,,001,44,2020_Jan_28_1018,Block4,3.1.2,59.994388561283046,
videoBlock_schemaN_pathA_4.csv,north.png,stims/wedding-13.1a.mp4,stims/wedding-13.1b.mp4,stims/wedding-13.2a.mp4,stims/wedding-13.3a.mp4,stims/wedding-13.4a.mp4,stims/wedding-13.5.mp4,stimsday1details/egg13.png,stimsday1details/couple13.png,stimsday1details/new4.png,stimsday1details/newegg4.png,stimsday1details/newperson4.png,stimsday1details/gift13.png,stimsday1details/n13.png,stimsday1details/ct13.png,stimsday1details/cn13.png,stimsday1details/t13.png,0,4,4,0,0,0,0,0,,,,,,,,,,,,,,,,,,,,,,,,,,,,,,,,,,,,,,,,,,,,,,,,,,,,,,,,,,,,,,,3.9733946323394775e-05,None,1,1.2450668010860682,661.9428306156769,None,661.9428306156769,None,661.9428306156769,None,663.9350930703804,None,1,0.6032541347667575,663.9350930703804,None,663.9350930703804,None,665.9355392204598,None,665.9355392204598,None,1,1.1174605414271355,665.9355392204598,None,2,0.9013715516775846,667.9359811739996,None,667.9359811739996,None,667.9359811739996,None,669.9361632531509,None,669.9361632531509,None,2,0.7229754673317075,669.9361632531509,None,671.9390130685642,None,1,0.5634611314162612,671.9390130685642,None,671.9390130685642,None,001,44,2020_Jan_28_1018,Block4,3.1.2,59.994388561283046,
videoBlock_schemaN_pathB_6.csv,north.png,stims/wedding-16.1a.mp4,stims/wedding-16.1b.mp4,stims/wedding-16.2b.mp4,stims/wedding-16.3b.mp4,stims/wedding-16.4b.mp4,stims/wedding-16.5.mp4,stimsday1details/painting16.png,stimsday1details/newperson18.png,stimsday1details/gift16.png,stimsday1details/newpainting6.png,stimsday1details/couple16.png,stimsday1details/new18.png,stimsday1details/n16.png,stimsday1details/ct16.png,stimsday1details/cn16.png,stimsday1details/t16.png,0,5,5,5,0,0,0,0,0,0,0,0,,,,,,,,,,,,,,,,,674.2398291062564,None,None,None,None,None,None,None,None,None,None,None,None,None,None,None,,,,,,,,,,,,,,,,,,,,,,,,,,,,,,,,,,,,,,,,,,,,,,,,,,,,,,,,,,,,,,,,,,,,,,,,,,,,,001,44,2020_Jan_28_1018,Block4,3.1.2,59.994388561283046,
videoBlock_schemaN_pathB_6.csv,north.png,stims/wedding-16.1a.mp4,stims/wedding-16.1b.mp4,stims/wedding-16.2b.mp4,stims/wedding-16.3b.mp4,stims/wedding-16.4b.mp4,stims/wedding-16.5.mp4,stimsday1details/painting16.png,stimsday1details/newperson18.png,stimsday1details/gift16.png,stimsday1details/newpainting6.png,stimsday1details/couple16.png,stimsday1details/new18.png,stimsday1details/n16.png,stimsday1details/ct16.png,stimsday1details/cn16.png,stimsday1details/t16.png,0,5,5,5,0,0,0,0,,,,,0,0,0,0,,,,,,,,,,,,,,,,,,,,,,,,,,,,,2.8102705599740148,None,687.1016601454467,None,703.3179075289518,712.3014063127339,712.3188090650365,729.3021000912413,729.317946607247,733.3065623724833,733.3065623724833,756.3015704685822,756.3178609162569,760.300599809736,760.3190978644416,784.301321266219,784.3175698528066,None,['2'],[3.0182647202163935],728.3185643069446,733.3065623724833,['2'],[2.0358123015612364],755.3179567856714,760.300599809736,,,,,,,,,,,,,,,,,,,,,,,,,,,,,,,,,,,,,,,,,,,,,,,,,,,001,44,2020_Jan_28_1018,Block4,3.1.2,59.994388561283046,
videoBlock_schemaN_pathB_6.csv,north.png,stims/wedding-16.1a.mp4,stims/wedding-16.1b.mp4,stims/wedding-16.2b.mp4,stims/wedding-16.3b.mp4,stims/wedding-16.4b.mp4,stims/wedding-16.5.mp4,stimsday1details/painting16.png,stimsday1details/newperson18.png,stimsday1details/gift16.png,stimsday1details/newpainting6.png,stimsday1details/couple16.png,stimsday1details/new18.png,stimsday1details/n16.png,stimsday1details/ct16.png,stimsday1details/cn16.png,stimsday1details/t16.png,0,5,5,5,0,0,0,0,,,,,,,,,,,,,,,,,,,,,,,,,,,,,,,,,,,,,,,,,,,,,,,,,,,,,,,,,,,,,,,3.631226718425751e-05,None,1,0.9351829998195171,799.1675403090194,None,799.1675403090194,None,799.1675403090194,None,801.1500520789996,None,1,0.7029486000537872,801.1500520789996,None,801.1500520789996,None,803.1591328820214,None,803.1591328820214,None,2,0.9316597729921341,803.1591328820214,None,2,1.035884028300643,805.1553153600544,None,805.1553153600544,None,805.1553153600544,None,807.1558016408235,None,807.1558016408235,None,1,0.6797600826248527,807.1558016408235,None,809.1499902307987,None,1,0.373899188823998,809.1499902307987,None,809.1499902307987,None,001,44,2020_Jan_28_1018,Block4,3.1.2,59.994388561283046,
