northOrSouth,stimFile1a,stimFile1b,stimFile2,stimFile3,stimFile4,stimFile5,Qeggpainting1,Qeggpainting2,Qcharacter1,Qcharacter2,Qgift1,Qgift2,Qname1,Qname2,Qtheme1,Qtheme2,trials.thisRepN,trials.thisTrialN,trials.thisN,trials.thisIndex,South.thisRepN,South.thisTrialN,South.thisN,South.thisIndex,North.thisRepN,North.thisTrialN,North.thisN,North.thisIndex,noQtrials.thisRepN,noQtrials.thisTrialN,noQtrials.thisN,noQtrials.thisIndex,Qtrials.thisRepN,Qtrials.thisTrialN,Qtrials.thisN,Qtrials.thisIndex,text.started,text.stopped,prep_trigger.keys,prep_trigger.rt,prep_trigger.started,prep_trigger.stopped,waiting.started,waiting.stopped,trigger.keys,trigger.rt,trigger.started,trigger.stopped,southCueImage.started,southCueImage.stopped,northCueImage.started,northCueImage.stopped,trialNoQs.started,trialNoQs.stopped,vid1a.started,vid1a.stopped,vid1b.started,vid1b.stopped,vid2.started,vid2.stopped,vid3.started,vid3.stopped,vid4.started,vid4.stopped,vid5.started,vid5.stopped,ISI2.started,ISI2.stopped,vid1a_q.started,vid1a_q.stopped,vid1b_q.started,vid1b_q.stopped,vid2_q.started,vid2_q.stopped,l2q.started,l2q.stopped,vid3_q.started,vid3_q.stopped,l3q.started,l3q.stopped,vid4_q.started,vid4_q.stopped,vid5_q.started,vid5_q.stopped,key_resp_2.keys,key_resp_2.rt,key_resp_2.started,key_resp_2.stopped,key_resp_3.keys,key_resp_3.rt,key_resp_3.started,key_resp_3.stopped,ISI7.started,ISI7.stopped,nameQresp.keys,nameQresp.rt,nameQresp.started,nameQresp.stopped,nameQ1.started,nameQ1.stopped,nameQ2.started,nameQ2.stopped,eggPainting1.started,eggPainting1.stopped,eggPaintingQresp.keys,eggPaintingQresp.rt,eggPaintingQresp.started,eggPaintingQresp.stopped,eggPainting2.started,eggPainting2.stopped,character1.started,character1.stopped,character2.started,character2.stopped,Qcharacter.keys,Qcharacter.rt,Qcharacter.started,Qcharacter.stopped,themeQresp.keys,themeQresp.rt,themeQresp.started,themeQresp.stopped,themeQ1.started,themeQ1.stopped,themeQ2.started,themeQ2.stopped,gift1.started,gift1.stopped,gift2.started,gift2.stopped,giftQresp.keys,giftQresp.rt,giftQresp.started,giftQresp.stopped,northorsouth1.started,northorsouth1.stopped,northorsouth2.started,northorsouth2.stopped,northOrSouthQ.keys,northOrSouthQ.rt,northOrSouthQ.started,northOrSouthQ.stopped,session,participant,date,expName,psychopyVersion,frameRate,
,,,,,,,,,,,,,,,,,,,,,,,,,,,,,,,,,,,,,8.13388976547867,None,g,0.7711268085986376,8.13388976547867,None,,,,,,,,,,,,,,,,,,,,,,,,,,,,,,,,,,,,,,,,,,,,,,,,,,,,,,,,,,,,,,,,,,,,,,,,,,,,,,,,,,,,,,,,,,,,,,,,,,,,,001,38,2020_Jan_14_1538,viewing,3.1.2,60.00382429148216,
,,,,,,,,,,,,,,,,,,,,,,,,,,,,,,,,,,,,,,,,,,,8.917239410802722,None,equal,15.402104448527098,8.917239410802722,None,,,,,,,,,,,,,,,,,,,,,,,,,,,,,,,,,,,,,,,,,,,,,,,,,,,,,,,,,,,,,,,,,,,,,,,,,,,,,,,,,,,,,,,,,,,,,,,001,38,2020_Jan_14_1538,viewing,3.1.2,60.00382429148216,
south.png,stims/wedding-23.1a.mp4,stims/wedding-23.1b.mp4,stims/wedding-23.2b.mp4,stims/wedding-23.3a.mp4,stims/wedding-23.4b.mp4,stims/wedding-23.5.mp4,stimsday2details/painting23.png,stimsday2details/newpainting13.png,stimsday2details/couple23.png,stimsday2details/newperson25.png,stimsday2details/new25.png,stimsday2details/gift23.png,stimsday2details/n23.png,stimsday2details/cn23.png,stimsday2details/t23.png,stimsday2details/ct23.png,0,0,0,0,0,0,0,0,,,,,,,,,,,,,,,,,,,,,,,,,24.350412618368864,None,,,,,,,,,,,,,,,,,,,,,,,,,,,,,,,,,,,,,,,,,,,,,,,,,,,,,,,,,,,,,,,,,,,,,,,,,,,,,,,,,,,,,,,,,,,,,001,38,2020_Jan_14_1538,viewing,3.1.2,60.00382429148216,
south.png,stims/wedding-23.1a.mp4,stims/wedding-23.1b.mp4,stims/wedding-23.2b.mp4,stims/wedding-23.3a.mp4,stims/wedding-23.4b.mp4,stims/wedding-23.5.mp4,stimsday2details/painting23.png,stimsday2details/newpainting13.png,stimsday2details/couple23.png,stimsday2details/newperson25.png,stimsday2details/new25.png,stimsday2details/gift23.png,stimsday2details/n23.png,stimsday2details/cn23.png,stimsday2details/t23.png,stimsday2details/ct23.png,0,0,0,0,,,,,0,0,0,0,,,,,,,,,,,,,,,,,,,,,,,None,None,,,,,,,,,,,,,,,,,,,,,,,,,,,,,,,,,,,,,,,,,,,,,,,,,,,,,,,,,,,,,,,,,,,,,,,,,,,,,,,,,,,,,,,,,,,001,38,2020_Jan_14_1538,viewing,3.1.2,60.00382429148216,
south.png,stims/wedding-23.1a.mp4,stims/wedding-23.1b.mp4,stims/wedding-23.2b.mp4,stims/wedding-23.3a.mp4,stims/wedding-23.4b.mp4,stims/wedding-23.5.mp4,stimsday2details/painting23.png,stimsday2details/newpainting13.png,stimsday2details/couple23.png,stimsday2details/newperson25.png,stimsday2details/new25.png,stimsday2details/gift23.png,stimsday2details/n23.png,stimsday2details/cn23.png,stimsday2details/t23.png,stimsday2details/ct23.png,0,0,0,0,,,,,,,,,0,0,0,0,,,,,,,,,,,,,,,,,,,,,None,None,None,None,None,None,None,None,None,None,None,None,None,None,,,,,,,,,,,,,,,,,,,,,,,,,,,,,,,,,,,,,,,,,,,,,,,,,,,,,,,,,,,,,,,,,,,,,,,,,,,,,001,38,2020_Jan_14_1538,viewing,3.1.2,60.00382429148216,
south.png,stims/wedding-23.1a.mp4,stims/wedding-23.1b.mp4,stims/wedding-23.2b.mp4,stims/wedding-23.3a.mp4,stims/wedding-23.4b.mp4,stims/wedding-23.5.mp4,stimsday2details/painting23.png,stimsday2details/newpainting13.png,stimsday2details/couple23.png,stimsday2details/newperson25.png,stimsday2details/new25.png,stimsday2details/gift23.png,stimsday2details/n23.png,stimsday2details/cn23.png,stimsday2details/t23.png,stimsday2details/ct23.png,0,0,0,0,,,,,,,,,,,,,0,0,0,0,,,,,,,,,,,,,,,,,,,,,,,,,,,,,,,2.7770776571705937,None,37.25168145913631,62.483449187129736,62.483449187129736,None,71.48318814113736,None,88.48295665252954,92.4828314948827,92.4828314948827,115.48264262080193,115.48264262080193,119.48257756233215,119.48257756233215,None,143.48227780964226,None,['1'],[2.8851372860372066],87.48316597379744,92.4828314948827,['2'],[3.152375115081668],114.4826406436041,119.48257756233215,,,,,,,,,,,,,,,,,,,,,,,,,,,,,,,,,,,,,,,,,,,,,,,,,,,001,38,2020_Jan_14_1538,viewing,3.1.2,60.00382429148216,
south.png,stims/wedding-23.1a.mp4,stims/wedding-23.1b.mp4,stims/wedding-23.2b.mp4,stims/wedding-23.3a.mp4,stims/wedding-23.4b.mp4,stims/wedding-23.5.mp4,stimsday2details/painting23.png,stimsday2details/newpainting13.png,stimsday2details/couple23.png,stimsday2details/newperson25.png,stimsday2details/new25.png,stimsday2details/gift23.png,stimsday2details/n23.png,stimsday2details/cn23.png,stimsday2details/t23.png,stimsday2details/ct23.png,0,0,0,0,,,,,,,,,,,,,,,,,,,,,,,,,,,,,,,,,,,,,,,,,,,,,,,,,,,,,,,,,,,,,,,,,,,,,,,,,2.744048833847046e-05,None,1,0.6354807410389185,164.59888107981533,None,164.59888107981533,None,164.59888107981533,None,166.59865341708064,None,1,0.6336296666413546,166.59865341708064,None,166.59865341708064,None,168.59863514918834,None,168.59863514918834,None,1,0.6873932331800461,168.59863514918834,None,1,0.6204668125137687,170.59861074574292,None,170.59861074574292,None,170.59861074574292,None,172.5987760713324,None,172.5987760713324,None,2,0.7534249173477292,172.5987760713324,None,174.5985563043505,None,174.5985563043505,None,2,1.0671284208074212,174.5985563043505,None,001,38,2020_Jan_14_1538,viewing,3.1.2,60.00382429148216,
north.png,stims/wedding-29.1a.mp4,stims/wedding-29.1b.mp4,stims/wedding-29.2b.mp4,stims/wedding-29.3b.mp4,stims/wedding-29.4b.mp4,stims/wedding-29.5.mp4,stimsday2details/painting29.png,stimsday2details/newpainting14.png,stimsday2details/newperson26.png,stimsday2details/couple29.png,stimsday2details/gift29.png,stimsday2details/new26.png,stimsday2details/cn29.png,stimsday2details/n29.png,stimsday2details/ct29.png,stimsday2details/t29.png,0,1,1,1,0,0,0,0,,,,,,,,,,,,,,,,,,,,,,,,,None,None,,,,,,,,,,,,,,,,,,,,,,,,,,,,,,,,,,,,,,,,,,,,,,,,,,,,,,,,,,,,,,,,,,,,,,,,,,,,,,,,,,,,,,,,,,,,,001,38,2020_Jan_14_1538,viewing,3.1.2,60.00382429148216,
north.png,stims/wedding-29.1a.mp4,stims/wedding-29.1b.mp4,stims/wedding-29.2b.mp4,stims/wedding-29.3b.mp4,stims/wedding-29.4b.mp4,stims/wedding-29.5.mp4,stimsday2details/painting29.png,stimsday2details/newpainting14.png,stimsday2details/newperson26.png,stimsday2details/couple29.png,stimsday2details/gift29.png,stimsday2details/new26.png,stimsday2details/cn29.png,stimsday2details/n29.png,stimsday2details/ct29.png,stimsday2details/t29.png,0,1,1,1,,,,,0,0,0,0,,,,,,,,,,,,,,,,,,,,,,,176.64852201286703,None,,,,,,,,,,,,,,,,,,,,,,,,,,,,,,,,,,,,,,,,,,,,,,,,,,,,,,,,,,,,,,,,,,,,,,,,,,,,,,,,,,,,,,,,,,,001,38,2020_Jan_14_1538,viewing,3.1.2,60.00382429148216,
north.png,stims/wedding-29.1a.mp4,stims/wedding-29.1b.mp4,stims/wedding-29.2b.mp4,stims/wedding-29.3b.mp4,stims/wedding-29.4b.mp4,stims/wedding-29.5.mp4,stimsday2details/painting29.png,stimsday2details/newpainting14.png,stimsday2details/newperson26.png,stimsday2details/couple29.png,stimsday2details/gift29.png,stimsday2details/new26.png,stimsday2details/cn29.png,stimsday2details/n29.png,stimsday2details/ct29.png,stimsday2details/t29.png,0,1,1,1,,,,,,,,,0,0,0,0,,,,,,,,,,,,,,,,,,,,,2.9011300560086966,None,186.59850844834,211.69809216447175,211.71474988851696,None,220.71465185284615,None,237.7146331500262,260.6974826734513,260.71415017172694,None,284.7140361983329,None,,,,,,,,,,,,,,,,,,,,,,,,,,,,,,,,,,,,,,,,,,,,,,,,,,,,,,,,,,,,,,,,,,,,,,,,,,,,,001,38,2020_Jan_14_1538,viewing,3.1.2,60.00382429148216,
north.png,stims/wedding-29.1a.mp4,stims/wedding-29.1b.mp4,stims/wedding-29.2b.mp4,stims/wedding-29.3b.mp4,stims/wedding-29.4b.mp4,stims/wedding-29.5.mp4,stimsday2details/painting29.png,stimsday2details/newpainting14.png,stimsday2details/newperson26.png,stimsday2details/couple29.png,stimsday2details/gift29.png,stimsday2details/new26.png,stimsday2details/cn29.png,stimsday2details/n29.png,stimsday2details/ct29.png,stimsday2details/t29.png,0,1,1,1,,,,,,,,,,,,,0,0,0,0,,,,,,,,,,,,,,,,,,,,,,,,,,,,,,,None,None,None,None,None,None,None,None,None,None,None,None,None,None,None,None,None,None,None,,None,None,None,,None,None,,,,,,,,,,,,,,,,,,,,,,,,,,,,,,,,,,,,,,,,,,,,,,,,,,,001,38,2020_Jan_14_1538,viewing,3.1.2,60.00382429148216,
north.png,stims/wedding-29.1a.mp4,stims/wedding-29.1b.mp4,stims/wedding-29.2b.mp4,stims/wedding-29.3b.mp4,stims/wedding-29.4b.mp4,stims/wedding-29.5.mp4,stimsday2details/painting29.png,stimsday2details/newpainting14.png,stimsday2details/newperson26.png,stimsday2details/couple29.png,stimsday2details/gift29.png,stimsday2details/new26.png,stimsday2details/cn29.png,stimsday2details/n29.png,stimsday2details/ct29.png,stimsday2details/t29.png,0,1,1,1,,,,,,,,,,,,,,,,,,,,,,,,,,,,,,,,,,,,,,,,,,,,,,,,,,,,,,,,,,,,,,,,,,,,,,,,,3.09208407998085e-05,None,2,1.1539343046024442,307.9303416404873,None,307.9303416404873,None,307.9303416404873,None,309.9134672470391,None,1,0.7703286465257406,309.9134672470391,None,309.9134672470391,None,311.9136804956943,None,311.9136804956943,None,2,1.0371930003166199,311.9136804956943,None,2,1.136879469268024,313.9136598985642,None,313.9136598985642,None,313.9136598985642,None,315.9134694477543,None,315.9134694477543,None,1,0.9364168727770448,315.9134694477543,None,317.9134377799928,None,317.9134377799928,None,None,,317.9134377799928,None,001,38,2020_Jan_14_1538,viewing,3.1.2,60.00382429148216,
north.png,stims/wedding-1.1a.mp4,stims/wedding-1.1b.mp4,stims/wedding-1.2b.mp4,stims/wedding-1.3b.mp4,stims/wedding-1.4b.mp4,stims/wedding-1.5.mp4,stimsday2details/painting1.png,stimsday2details/newpainting15.png,stimsday2details/couple1.png,stimsday2details/newperson27.png,stimsday2details/new27.png,stimsday2details/gift1.png,stimsday2details/cn1.png,stimsday2details/n1.png,stimsday2details/t1.png,stimsday2details/ct1.png,0,2,2,2,0,0,0,0,,,,,,,,,,,,,,,,,,,,,,,,,None,None,,,,,,,,,,,,,,,,,,,,,,,,,,,,,,,,,,,,,,,,,,,,,,,,,,,,,,,,,,,,,,,,,,,,,,,,,,,,,,,,,,,,,,,,,,,,,001,38,2020_Jan_14_1538,viewing,3.1.2,60.00382429148216,
north.png,stims/wedding-1.1a.mp4,stims/wedding-1.1b.mp4,stims/wedding-1.2b.mp4,stims/wedding-1.3b.mp4,stims/wedding-1.4b.mp4,stims/wedding-1.5.mp4,stimsday2details/painting1.png,stimsday2details/newpainting15.png,stimsday2details/couple1.png,stimsday2details/newperson27.png,stimsday2details/new27.png,stimsday2details/gift1.png,stimsday2details/cn1.png,stimsday2details/n1.png,stimsday2details/t1.png,stimsday2details/ct1.png,0,2,2,2,,,,,0,0,0,0,,,,,,,,,,,,,,,,,,,,,,,319.9800409479067,None,,,,,,,,,,,,,,,,,,,,,,,,,,,,,,,,,,,,,,,,,,,,,,,,,,,,,,,,,,,,,,,,,,,,,,,,,,,,,,,,,,,,,,,,,,,001,38,2020_Jan_14_1538,viewing,3.1.2,60.00382429148216,
north.png,stims/wedding-1.1a.mp4,stims/wedding-1.1b.mp4,stims/wedding-1.2b.mp4,stims/wedding-1.3b.mp4,stims/wedding-1.4b.mp4,stims/wedding-1.5.mp4,stimsday2details/painting1.png,stimsday2details/newpainting15.png,stimsday2details/couple1.png,stimsday2details/newperson27.png,stimsday2details/new27.png,stimsday2details/gift1.png,stimsday2details/cn1.png,stimsday2details/n1.png,stimsday2details/t1.png,stimsday2details/ct1.png,0,2,2,2,,,,,,,,,0,0,0,0,,,,,,,,,,,,,,,,,,,,,2.906260037794709,None,329.96641745138913,355.0628963848576,355.0628963848576,None,364.06304594222456,None,381.06284079607576,404.06236139684916,404.06236139684916,428.0620637917891,428.0620637917891,None,,,,,,,,,,,,,,,,,,,,,,,,,,,,,,,,,,,,,,,,,,,,,,,,,,,,,,,,,,,,,,,,,,,,,,,,,,,,,001,38,2020_Jan_14_1538,viewing,3.1.2,60.00382429148216,
north.png,stims/wedding-1.1a.mp4,stims/wedding-1.1b.mp4,stims/wedding-1.2b.mp4,stims/wedding-1.3b.mp4,stims/wedding-1.4b.mp4,stims/wedding-1.5.mp4,stimsday2details/painting1.png,stimsday2details/newpainting15.png,stimsday2details/couple1.png,stimsday2details/newperson27.png,stimsday2details/new27.png,stimsday2details/gift1.png,stimsday2details/cn1.png,stimsday2details/n1.png,stimsday2details/t1.png,stimsday2details/ct1.png,0,2,2,2,,,,,,,,,,,,,0,0,0,0,,,,,,,,,,,,,,,,,,,,,,,,,,,,,,,None,None,None,None,None,None,None,None,None,None,None,None,None,None,None,None,None,None,None,,None,None,None,,None,None,,,,,,,,,,,,,,,,,,,,,,,,,,,,,,,,,,,,,,,,,,,,,,,,,,,001,38,2020_Jan_14_1538,viewing,3.1.2,60.00382429148216,
north.png,stims/wedding-1.1a.mp4,stims/wedding-1.1b.mp4,stims/wedding-1.2b.mp4,stims/wedding-1.3b.mp4,stims/wedding-1.4b.mp4,stims/wedding-1.5.mp4,stimsday2details/painting1.png,stimsday2details/newpainting15.png,stimsday2details/couple1.png,stimsday2details/newperson27.png,stimsday2details/new27.png,stimsday2details/gift1.png,stimsday2details/cn1.png,stimsday2details/n1.png,stimsday2details/t1.png,stimsday2details/ct1.png,0,2,2,2,,,,,,,,,,,,,,,,,,,,,,,,,,,,,,,,,,,,,,,,,,,,,,,,,,,,,,,,,,,,,,,,,,,,,,,,,4.6838074922561646e-05,None,2,0.8539827475324273,451.64508408587426,None,451.64508408587426,None,451.64508408587426,None,453.6284027574584,None,1,0.7870126189664006,453.6284027574584,None,453.6284027574584,None,455.62837498262525,None,455.62837498262525,None,1,0.8032976314425468,455.62837498262525,None,1,0.9372531101107597,457.6283598570153,None,457.6283598570153,None,457.6283598570153,None,459.62833639327437,None,459.62833639327437,None,2,0.7539292210713029,459.62833639327437,None,461.62830921821296,None,461.62830921821296,None,1,0.8366693845018744,461.62830921821296,None,001,38,2020_Jan_14_1538,viewing,3.1.2,60.00382429148216,
south.png,stims/wedding-22.1a.mp4,stims/wedding-22.1b.mp4,stims/wedding-22.2a.mp4,stims/wedding-22.3b.mp4,stims/wedding-22.4a.mp4,stims/wedding-22.5.mp4,stimsday2details/newegg13.png,stimsday2details/egg22.png,stimsday2details/newperson28.png,stimsday2details/couple22.png,stimsday2details/new28.png,stimsday2details/gift22.png,stimsday2details/cn22.png,stimsday2details/n22.png,stimsday2details/ct22.png,stimsday2details/t22.png,0,3,3,3,0,0,0,0,,,,,,,,,,,,,,,,,,,,,,,,,463.6284681670368,None,,,,,,,,,,,,,,,,,,,,,,,,,,,,,,,,,,,,,,,,,,,,,,,,,,,,,,,,,,,,,,,,,,,,,,,,,,,,,,,,,,,,,,,,,,,,,001,38,2020_Jan_14_1538,viewing,3.1.2,60.00382429148216,
south.png,stims/wedding-22.1a.mp4,stims/wedding-22.1b.mp4,stims/wedding-22.2a.mp4,stims/wedding-22.3b.mp4,stims/wedding-22.4a.mp4,stims/wedding-22.5.mp4,stimsday2details/newegg13.png,stimsday2details/egg22.png,stimsday2details/newperson28.png,stimsday2details/couple22.png,stimsday2details/new28.png,stimsday2details/gift22.png,stimsday2details/cn22.png,stimsday2details/n22.png,stimsday2details/ct22.png,stimsday2details/t22.png,0,3,3,3,,,,,0,0,0,0,,,,,,,,,,,,,,,,,,,,,,,None,None,,,,,,,,,,,,,,,,,,,,,,,,,,,,,,,,,,,,,,,,,,,,,,,,,,,,,,,,,,,,,,,,,,,,,,,,,,,,,,,,,,,,,,,,,,,001,38,2020_Jan_14_1538,viewing,3.1.2,60.00382429148216,
south.png,stims/wedding-22.1a.mp4,stims/wedding-22.1b.mp4,stims/wedding-22.2a.mp4,stims/wedding-22.3b.mp4,stims/wedding-22.4a.mp4,stims/wedding-22.5.mp4,stimsday2details/newegg13.png,stimsday2details/egg22.png,stimsday2details/newperson28.png,stimsday2details/couple22.png,stimsday2details/new28.png,stimsday2details/gift22.png,stimsday2details/cn22.png,stimsday2details/n22.png,stimsday2details/ct22.png,stimsday2details/t22.png,0,3,3,3,,,,,,,,,0,0,0,0,,,,,,,,,,,,,,,,,,,,,3.0604749685153365,None,473.878297184594,498.81117381341755,498.8278471035883,None,507.8278372567147,524.810975054279,524.8274526717141,547.8105532340705,547.8274032063782,571.8102562185377,571.8271014485508,None,,,,,,,,,,,,,,,,,,,,,,,,,,,,,,,,,,,,,,,,,,,,,,,,,,,,,,,,,,,,,,,,,,,,,,,,,,,,,001,38,2020_Jan_14_1538,viewing,3.1.2,60.00382429148216,
south.png,stims/wedding-22.1a.mp4,stims/wedding-22.1b.mp4,stims/wedding-22.2a.mp4,stims/wedding-22.3b.mp4,stims/wedding-22.4a.mp4,stims/wedding-22.5.mp4,stimsday2details/newegg13.png,stimsday2details/egg22.png,stimsday2details/newperson28.png,stimsday2details/couple22.png,stimsday2details/new28.png,stimsday2details/gift22.png,stimsday2details/cn22.png,stimsday2details/n22.png,stimsday2details/ct22.png,stimsday2details/t22.png,0,3,3,3,,,,,,,,,,,,,0,0,0,0,,,,,,,,,,,,,,,,,,,,,,,,,,,,,,,None,None,None,None,None,None,None,None,None,None,None,None,None,None,None,None,None,None,None,,None,None,None,,None,None,,,,,,,,,,,,,,,,,,,,,,,,,,,,,,,,,,,,,,,,,,,,,,,,,,,001,38,2020_Jan_14_1538,viewing,3.1.2,60.00382429148216,
south.png,stims/wedding-22.1a.mp4,stims/wedding-22.1b.mp4,stims/wedding-22.2a.mp4,stims/wedding-22.3b.mp4,stims/wedding-22.4a.mp4,stims/wedding-22.5.mp4,stimsday2details/newegg13.png,stimsday2details/egg22.png,stimsday2details/newperson28.png,stimsday2details/couple22.png,stimsday2details/new28.png,stimsday2details/gift22.png,stimsday2details/cn22.png,stimsday2details/n22.png,stimsday2details/ct22.png,stimsday2details/t22.png,0,3,3,3,,,,,,,,,,,,,,,,,,,,,,,,,,,,,,,,,,,,,,,,,,,,,,,,,,,,,,,,,,,,,,,,,,,,,,,,,4.334002733230591e-05,None,2,0.8678154991939664,595.594538605772,None,595.594538605772,None,595.594538605772,None,597.5765350665897,None,2,0.7022689022123814,597.5765350665897,None,597.5765350665897,None,599.5767454355955,None,599.5767454355955,None,2,0.901871140114963,599.5767454355955,None,2,1.2853872328996658,601.5767644094303,None,601.5767644094303,None,601.5767644094303,None,603.5767920948565,None,603.5767920948565,None,2,0.7021361328661442,603.5767920948565,None,605.576503239572,None,605.576503239572,None,2,1.1356544643640518,605.576503239572,None,001,38,2020_Jan_14_1538,viewing,3.1.2,60.00382429148216,
south.png,stims/wedding-2.1a.mp4,stims/wedding-2.1b.mp4,stims/wedding-2.2a.mp4,stims/wedding-2.3b.mp4,stims/wedding-2.4a.mp4,stims/wedding-2.5.mp4,stimsday2details/newegg14.png,stimsday2details/egg2.png,stimsday2details/newperson29.png,stimsday2details/couple2.png,stimsday2details/gift2.png,stimsday2details/new29.png,stimsday2details/n2.png,stimsday2details/cn2.png,stimsday2details/t2.png,stimsday2details/ct2.png,0,4,4,4,0,0,0,0,,,,,,,,,,,,,,,,,,,,,,,,,607.5764675820246,None,,,,,,,,,,,,,,,,,,,,,,,,,,,,,,,,,,,,,,,,,,,,,,,,,,,,,,,,,,,,,,,,,,,,,,,,,,,,,,,,,,,,,,,,,,,,,001,38,2020_Jan_14_1538,viewing,3.1.2,60.00382429148216,
south.png,stims/wedding-2.1a.mp4,stims/wedding-2.1b.mp4,stims/wedding-2.2a.mp4,stims/wedding-2.3b.mp4,stims/wedding-2.4a.mp4,stims/wedding-2.5.mp4,stimsday2details/newegg14.png,stimsday2details/egg2.png,stimsday2details/newperson29.png,stimsday2details/couple2.png,stimsday2details/gift2.png,stimsday2details/new29.png,stimsday2details/n2.png,stimsday2details/cn2.png,stimsday2details/t2.png,stimsday2details/ct2.png,0,4,4,4,,,,,0,0,0,0,,,,,,,,,,,,,,,,,,,,,,,None,None,,,,,,,,,,,,,,,,,,,,,,,,,,,,,,,,,,,,,,,,,,,,,,,,,,,,,,,,,,,,,,,,,,,,,,,,,,,,,,,,,,,,,,,,,,,001,38,2020_Jan_14_1538,viewing,3.1.2,60.00382429148216,
south.png,stims/wedding-2.1a.mp4,stims/wedding-2.1b.mp4,stims/wedding-2.2a.mp4,stims/wedding-2.3b.mp4,stims/wedding-2.4a.mp4,stims/wedding-2.5.mp4,stimsday2details/newegg14.png,stimsday2details/egg2.png,stimsday2details/newperson29.png,stimsday2details/couple2.png,stimsday2details/gift2.png,stimsday2details/new29.png,stimsday2details/n2.png,stimsday2details/cn2.png,stimsday2details/t2.png,stimsday2details/ct2.png,0,4,4,4,,,,,,,,,0,0,0,0,,,,,,,,,,,,,,,,,,,,,2.915320722386241,None,617.7263494487852,None,642.8095869533718,None,651.8092510960996,None,668.8090977994725,691.8089474858716,691.8089474858716,None,715.8252977216616,None,,,,,,,,,,,,,,,,,,,,,,,,,,,,,,,,,,,,,,,,,,,,,,,,,,,,,,,,,,,,,,,,,,,,,,,,,,,,,001,38,2020_Jan_14_1538,viewing,3.1.2,60.00382429148216,
south.png,stims/wedding-2.1a.mp4,stims/wedding-2.1b.mp4,stims/wedding-2.2a.mp4,stims/wedding-2.3b.mp4,stims/wedding-2.4a.mp4,stims/wedding-2.5.mp4,stimsday2details/newegg14.png,stimsday2details/egg2.png,stimsday2details/newperson29.png,stimsday2details/couple2.png,stimsday2details/gift2.png,stimsday2details/new29.png,stimsday2details/n2.png,stimsday2details/cn2.png,stimsday2details/t2.png,stimsday2details/ct2.png,0,4,4,4,,,,,,,,,,,,,0,0,0,0,,,,,,,,,,,,,,,,,,,,,,,,,,,,,,,None,None,None,None,None,None,None,None,None,None,None,None,None,None,None,None,None,None,None,,None,None,None,,None,None,,,,,,,,,,,,,,,,,,,,,,,,,,,,,,,,,,,,,,,,,,,,,,,,,,,001,38,2020_Jan_14_1538,viewing,3.1.2,60.00382429148216,
south.png,stims/wedding-2.1a.mp4,stims/wedding-2.1b.mp4,stims/wedding-2.2a.mp4,stims/wedding-2.3b.mp4,stims/wedding-2.4a.mp4,stims/wedding-2.5.mp4,stimsday2details/newegg14.png,stimsday2details/egg2.png,stimsday2details/newperson29.png,stimsday2details/couple2.png,stimsday2details/gift2.png,stimsday2details/new29.png,stimsday2details/n2.png,stimsday2details/cn2.png,stimsday2details/t2.png,stimsday2details/ct2.png,0,4,4,4,,,,,,,,,,,,,,,,,,,,,,,,,,,,,,,,,,,,,,,,,,,,,,,,,,,,,,,,,,,,,,,,,,,,,,,,,3.9604492485523224e-05,None,1,0.8687537405639887,739.6415094295517,None,739.6415094295517,None,739.6415094295517,None,741.6247899327427,None,2,0.7688819747418165,741.6247899327427,None,741.6247899327427,None,743.624759499915,None,743.624759499915,None,2,0.968950554728508,743.624759499915,None,1,0.88571737986058,745.6249037012458,None,745.6249037012458,None,745.6249037012458,None,747.6248889900744,None,747.6248889900744,None,1,0.6689110295847058,747.6248889900744,None,749.6248796563596,None,749.6248796563596,None,2,1.018791032023728,749.6248796563596,None,001,38,2020_Jan_14_1538,viewing,3.1.2,60.00382429148216,
north.png,stims/wedding-19.1a.mp4,stims/wedding-19.1b.mp4,stims/wedding-19.2b.mp4,stims/wedding-19.3b.mp4,stims/wedding-19.4b.mp4,stims/wedding-19.5.mp4,stimsday2details/painting19.png,stimsday2details/newpainting16.png,stimsday2details/couple19.png,stimsday2details/newperson30.png,stimsday2details/gift19.png,stimsday2details/new30.png,stimsday2details/n19.png,stimsday2details/cn19.png,stimsday2details/t19.png,stimsday2details/ct19.png,0,5,5,5,0,0,0,0,,,,,,,,,,,,,,,,,,,,,,,,,None,None,,,,,,,,,,,,,,,,,,,,,,,,,,,,,,,,,,,,,,,,,,,,,,,,,,,,,,,,,,,,,,,,,,,,,,,,,,,,,,,,,,,,,,,,,,,,,001,38,2020_Jan_14_1538,viewing,3.1.2,60.00382429148216,
north.png,stims/wedding-19.1a.mp4,stims/wedding-19.1b.mp4,stims/wedding-19.2b.mp4,stims/wedding-19.3b.mp4,stims/wedding-19.4b.mp4,stims/wedding-19.5.mp4,stimsday2details/painting19.png,stimsday2details/newpainting16.png,stimsday2details/couple19.png,stimsday2details/newperson30.png,stimsday2details/gift19.png,stimsday2details/new30.png,stimsday2details/n19.png,stimsday2details/cn19.png,stimsday2details/t19.png,stimsday2details/ct19.png,0,5,5,5,,,,,0,0,0,0,,,,,,,,,,,,,,,,,,,,,,,751.7579271346331,None,,,,,,,,,,,,,,,,,,,,,,,,,,,,,,,,,,,,,,,,,,,,,,,,,,,,,,,,,,,,,,,,,,,,,,,,,,,,,,,,,,,,,,,,,,,001,38,2020_Jan_14_1538,viewing,3.1.2,60.00382429148216,
north.png,stims/wedding-19.1a.mp4,stims/wedding-19.1b.mp4,stims/wedding-19.2b.mp4,stims/wedding-19.3b.mp4,stims/wedding-19.4b.mp4,stims/wedding-19.5.mp4,stimsday2details/painting19.png,stimsday2details/newpainting16.png,stimsday2details/couple19.png,stimsday2details/newperson30.png,stimsday2details/gift19.png,stimsday2details/new30.png,stimsday2details/n19.png,stimsday2details/cn19.png,stimsday2details/t19.png,stimsday2details/ct19.png,0,5,5,5,,,,,,,,,0,0,0,0,,,,,,,,,,,,,,,,,,,,,3.067555638961494,None,761.9746976587921,786.891138618812,786.9075510594994,None,795.907442565076,812.8907351782545,812.9072291105986,835.9068941539153,835.9068941539153,None,859.9066422889009,None,,,,,,,,,,,,,,,,,,,,,,,,,,,,,,,,,,,,,,,,,,,,,,,,,,,,,,,,,,,,,,,,,,,,,,,,,,,,,001,38,2020_Jan_14_1538,viewing,3.1.2,60.00382429148216,
north.png,stims/wedding-19.1a.mp4,stims/wedding-19.1b.mp4,stims/wedding-19.2b.mp4,stims/wedding-19.3b.mp4,stims/wedding-19.4b.mp4,stims/wedding-19.5.mp4,stimsday2details/painting19.png,stimsday2details/newpainting16.png,stimsday2details/couple19.png,stimsday2details/newperson30.png,stimsday2details/gift19.png,stimsday2details/new30.png,stimsday2details/n19.png,stimsday2details/cn19.png,stimsday2details/t19.png,stimsday2details/ct19.png,0,5,5,5,,,,,,,,,,,,,0,0,0,0,,,,,,,,,,,,,,,,,,,,,,,,,,,,,,,None,None,None,None,None,None,None,None,None,None,None,None,None,None,None,None,None,None,None,,None,None,None,,None,None,,,,,,,,,,,,,,,,,,,,,,,,,,,,,,,,,,,,,,,,,,,,,,,,,,,001,38,2020_Jan_14_1538,viewing,3.1.2,60.00382429148216,
north.png,stims/wedding-19.1a.mp4,stims/wedding-19.1b.mp4,stims/wedding-19.2b.mp4,stims/wedding-19.3b.mp4,stims/wedding-19.4b.mp4,stims/wedding-19.5.mp4,stimsday2details/painting19.png,stimsday2details/newpainting16.png,stimsday2details/couple19.png,stimsday2details/newperson30.png,stimsday2details/gift19.png,stimsday2details/new30.png,stimsday2details/n19.png,stimsday2details/cn19.png,stimsday2details/t19.png,stimsday2details/ct19.png,0,5,5,5,,,,,,,,,,,,,,,,,,,,,,,,,,,,,,,,,,,,,,,,,,,,,,,,,,,,,,,,,,,,,,,,,,,,,,,,,4.752911627292633e-05,None,1,1.069025325588882,884.2563417050987,None,884.2563417050987,None,884.2563417050987,None,886.2396450927481,None,1,0.6352990176528692,886.2396450927481,None,886.2396450927481,None,888.2396268136799,None,888.2396268136799,None,1,0.6521414564922452,888.2396268136799,None,1,0.7023787973448634,890.2397803943604,None,890.2397803943604,None,890.2397803943604,None,892.2395651917905,None,892.2395651917905,None,1,0.8669448662549257,892.2395651917905,None,894.239481494762,None,894.239481494762,None,1,1.2523818779736757,894.239481494762,None,001,38,2020_Jan_14_1538,viewing,3.1.2,60.00382429148216,
north.png,stims/wedding-17.1a.mp4,stims/wedding-17.1b.mp4,stims/wedding-17.2a.mp4,stims/wedding-17.3a.mp4,stims/wedding-17.4a.mp4,stims/wedding-17.5.mp4,stimsday2details/egg17.png,stimsday2details/newegg15.png,stimsday2details/couple17.png,stimsday2details/newperson31.png,stimsday2details/new31.png,stimsday2details/gift17.png,stimsday2details/n17.png,stimsday2details/cn17.png,stimsday2details/t17.png,stimsday2details/ct17.png,0,6,6,6,0,0,0,0,,,,,,,,,,,,,,,,,,,,,,,,,None,None,,,,,,,,,,,,,,,,,,,,,,,,,,,,,,,,,,,,,,,,,,,,,,,,,,,,,,,,,,,,,,,,,,,,,,,,,,,,,,,,,,,,,,,,,,,,,001,38,2020_Jan_14_1538,viewing,3.1.2,60.00382429148216,
north.png,stims/wedding-17.1a.mp4,stims/wedding-17.1b.mp4,stims/wedding-17.2a.mp4,stims/wedding-17.3a.mp4,stims/wedding-17.4a.mp4,stims/wedding-17.5.mp4,stimsday2details/egg17.png,stimsday2details/newegg15.png,stimsday2details/couple17.png,stimsday2details/newperson31.png,stimsday2details/new31.png,stimsday2details/gift17.png,stimsday2details/n17.png,stimsday2details/cn17.png,stimsday2details/t17.png,stimsday2details/ct17.png,0,6,6,6,,,,,0,0,0,0,,,,,,,,,,,,,,,,,,,,,,,896.3897147243842,None,,,,,,,,,,,,,,,,,,,,,,,,,,,,,,,,,,,,,,,,,,,,,,,,,,,,,,,,,,,,,,,,,,,,,,,,,,,,,,,,,,,,,,,,,,,001,38,2020_Jan_14_1538,viewing,3.1.2,60.00382429148216,
north.png,stims/wedding-17.1a.mp4,stims/wedding-17.1b.mp4,stims/wedding-17.2a.mp4,stims/wedding-17.3a.mp4,stims/wedding-17.4a.mp4,stims/wedding-17.5.mp4,stimsday2details/egg17.png,stimsday2details/newegg15.png,stimsday2details/couple17.png,stimsday2details/newperson31.png,stimsday2details/new31.png,stimsday2details/gift17.png,stimsday2details/n17.png,stimsday2details/cn17.png,stimsday2details/t17.png,stimsday2details/ct17.png,0,6,6,6,,,,,,,,,0,0,0,0,,,,,,,,,,,,,,,,,,,,,2.9802009286358953,None,906.7944351714104,None,931.8226014822721,None,940.8222949756309,957.805411586538,957.8220796510577,None,980.8217260986567,None,1004.8216636683792,None,,,,,,,,,,,,,,,,,,,,,,,,,,,,,,,,,,,,,,,,,,,,,,,,,,,,,,,,,,,,,,,,,,,,,,,,,,,,,001,38,2020_Jan_14_1538,viewing,3.1.2,60.00382429148216,
north.png,stims/wedding-17.1a.mp4,stims/wedding-17.1b.mp4,stims/wedding-17.2a.mp4,stims/wedding-17.3a.mp4,stims/wedding-17.4a.mp4,stims/wedding-17.5.mp4,stimsday2details/egg17.png,stimsday2details/newegg15.png,stimsday2details/couple17.png,stimsday2details/newperson31.png,stimsday2details/new31.png,stimsday2details/gift17.png,stimsday2details/n17.png,stimsday2details/cn17.png,stimsday2details/t17.png,stimsday2details/ct17.png,0,6,6,6,,,,,,,,,,,,,0,0,0,0,,,,,,,,,,,,,,,,,,,,,,,,,,,,,,,None,None,None,None,None,None,None,None,None,None,None,None,None,None,None,None,None,None,None,,None,None,None,,None,None,,,,,,,,,,,,,,,,,,,,,,,,,,,,,,,,,,,,,,,,,,,,,,,,,,,001,38,2020_Jan_14_1538,viewing,3.1.2,60.00382429148216,
north.png,stims/wedding-17.1a.mp4,stims/wedding-17.1b.mp4,stims/wedding-17.2a.mp4,stims/wedding-17.3a.mp4,stims/wedding-17.4a.mp4,stims/wedding-17.5.mp4,stimsday2details/egg17.png,stimsday2details/newegg15.png,stimsday2details/couple17.png,stimsday2details/newperson31.png,stimsday2details/new31.png,stimsday2details/gift17.png,stimsday2details/n17.png,stimsday2details/cn17.png,stimsday2details/t17.png,stimsday2details/ct17.png,0,6,6,6,,,,,,,,,,,,,,,,,,,,,,,,,,,,,,,,,,,,,,,,,,,,,,,,,,,,,,,,,,,,,,,,,,,,,,,,,4.1756778955459595e-05,None,1,0.8473155284300447,1028.709512447007,None,1028.709512447007,None,1028.709512447007,None,1030.6878317380324,None,1,0.8524581734091043,1030.6878317380324,None,1030.6878317380324,None,1032.6877488037571,None,1032.6877488037571,None,1,0.8357168864458799,1032.6877488037571,None,1,0.9686551559716463,1034.6879955921322,None,1034.6879955921322,None,1034.6879955921322,None,1036.6876856377348,None,1036.6876856377348,None,2,0.7357401140034199,1036.6876856377348,None,1038.6878826497123,None,1038.6878826497123,None,1,1.4188897795975208,1038.6878826497123,None,001,38,2020_Jan_14_1538,viewing,3.1.2,60.00382429148216,
south.png,stims/wedding-38.1a.mp4,stims/wedding-38.1b.mp4,stims/wedding-38.2b.mp4,stims/wedding-38.3a.mp4,stims/wedding-38.4b.mp4,stims/wedding-38.5.mp4,stimsday2details/painting38.png,stimsday2details/newpainting17.png,stimsday2details/newperson32.png,stimsday2details/couple38.png,stimsday2details/new32.png,stimsday2details/gift38.png,stimsday2details/cn38.png,stimsday2details/n38.png,stimsday2details/ct38.png,stimsday2details/t38.png,0,7,7,7,0,0,0,0,,,,,,,,,,,,,,,,,,,,,,,,,1040.6878690086305,None,,,,,,,,,,,,,,,,,,,,,,,,,,,,,,,,,,,,,,,,,,,,,,,,,,,,,,,,,,,,,,,,,,,,,,,,,,,,,,,,,,,,,,,,,,,,,001,38,2020_Jan_14_1538,viewing,3.1.2,60.00382429148216,
south.png,stims/wedding-38.1a.mp4,stims/wedding-38.1b.mp4,stims/wedding-38.2b.mp4,stims/wedding-38.3a.mp4,stims/wedding-38.4b.mp4,stims/wedding-38.5.mp4,stimsday2details/painting38.png,stimsday2details/newpainting17.png,stimsday2details/newperson32.png,stimsday2details/couple38.png,stimsday2details/new32.png,stimsday2details/gift38.png,stimsday2details/cn38.png,stimsday2details/n38.png,stimsday2details/ct38.png,stimsday2details/t38.png,0,7,7,7,,,,,0,0,0,0,,,,,,,,,,,,,,,,,,,,,,,None,None,,,,,,,,,,,,,,,,,,,,,,,,,,,,,,,,,,,,,,,,,,,,,,,,,,,,,,,,,,,,,,,,,,,,,,,,,,,,,,,,,,,,,,,,,,,001,38,2020_Jan_14_1538,viewing,3.1.2,60.00382429148216,
south.png,stims/wedding-38.1a.mp4,stims/wedding-38.1b.mp4,stims/wedding-38.2b.mp4,stims/wedding-38.3a.mp4,stims/wedding-38.4b.mp4,stims/wedding-38.5.mp4,stimsday2details/painting38.png,stimsday2details/newpainting17.png,stimsday2details/newperson32.png,stimsday2details/couple38.png,stimsday2details/new32.png,stimsday2details/gift38.png,stimsday2details/cn38.png,stimsday2details/n38.png,stimsday2details/ct38.png,stimsday2details/t38.png,0,7,7,7,,,,,,,,,0,0,0,0,,,,,,,,,,,,,,,,,,,,,2.9060008339583874,None,1050.9543033018708,1076.0539326872677,1076.0706005264074,None,1085.0704974532127,None,1102.0705828517675,1125.0535130565986,1125.069923534058,None,1149.069639983587,None,,,,,,,,,,,,,,,,,,,,,,,,,,,,,,,,,,,,,,,,,,,,,,,,,,,,,,,,,,,,,,,,,,,,,,,,,,,,,001,38,2020_Jan_14_1538,viewing,3.1.2,60.00382429148216,
south.png,stims/wedding-38.1a.mp4,stims/wedding-38.1b.mp4,stims/wedding-38.2b.mp4,stims/wedding-38.3a.mp4,stims/wedding-38.4b.mp4,stims/wedding-38.5.mp4,stimsday2details/painting38.png,stimsday2details/newpainting17.png,stimsday2details/newperson32.png,stimsday2details/couple38.png,stimsday2details/new32.png,stimsday2details/gift38.png,stimsday2details/cn38.png,stimsday2details/n38.png,stimsday2details/ct38.png,stimsday2details/t38.png,0,7,7,7,,,,,,,,,,,,,0,0,0,0,,,,,,,,,,,,,,,,,,,,,,,,,,,,,,,None,None,None,None,None,None,None,None,None,None,None,None,None,None,None,None,None,None,None,,None,None,None,,None,None,,,,,,,,,,,,,,,,,,,,,,,,,,,,,,,,,,,,,,,,,,,,,,,,,,,001,38,2020_Jan_14_1538,viewing,3.1.2,60.00382429148216,
south.png,stims/wedding-38.1a.mp4,stims/wedding-38.1b.mp4,stims/wedding-38.2b.mp4,stims/wedding-38.3a.mp4,stims/wedding-38.4b.mp4,stims/wedding-38.5.mp4,stimsday2details/painting38.png,stimsday2details/newpainting17.png,stimsday2details/newperson32.png,stimsday2details/couple38.png,stimsday2details/new32.png,stimsday2details/gift38.png,stimsday2details/cn38.png,stimsday2details/n38.png,stimsday2details/ct38.png,stimsday2details/t38.png,0,7,7,7,,,,,,,,,,,,,,,,,,,,,,,,,,,,,,,,,,,,,,,,,,,,,,,,,,,,,,,,,,,,,,,,,,,,,,,,,5.1058828830718994e-05,None,2,0.8520436240360141,1173.036291334778,None,1173.036291334778,None,1173.036291334778,None,1175.0193628082052,None,1,1.2190406918525696,1175.0193628082052,None,1175.0193628082052,None,1177.019271680154,None,1177.019271680154,None,2,0.9190260646864772,1177.019271680154,None,2,1.0353646138682961,1179.0194816505536,None,1179.0194816505536,None,1179.0194816505536,None,1181.0192882288247,None,1181.0192882288247,None,2,1.0503609562292695,1181.0192882288247,None,1183.0192616144195,None,1183.0192616144195,None,1,1.5686029335483909,1183.0192616144195,None,001,38,2020_Jan_14_1538,viewing,3.1.2,60.00382429148216,
south.png,stims/wedding-20.1a.mp4,stims/wedding-20.1b.mp4,stims/wedding-20.2a.mp4,stims/wedding-20.3b.mp4,stims/wedding-20.4a.mp4,stims/wedding-20.5.mp4,stimsday2details/egg20.png,stimsday2details/newegg16.png,stimsday2details/newperson33.png,stimsday2details/couple20.png,stimsday2details/gift20.png,stimsday2details/new33.png,stimsday2details/cn20.png,stimsday2details/n20.png,stimsday2details/t20.png,stimsday2details/ct20.png,0,8,8,8,0,0,0,0,,,,,,,,,,,,,,,,,,,,,,,,,1185.0192314591259,None,,,,,,,,,,,,,,,,,,,,,,,,,,,,,,,,,,,,,,,,,,,,,,,,,,,,,,,,,,,,,,,,,,,,,,,,,,,,,,,,,,,,,,,,,,,,,001,38,2020_Jan_14_1538,viewing,3.1.2,60.00382429148216,
south.png,stims/wedding-20.1a.mp4,stims/wedding-20.1b.mp4,stims/wedding-20.2a.mp4,stims/wedding-20.3b.mp4,stims/wedding-20.4a.mp4,stims/wedding-20.5.mp4,stimsday2details/egg20.png,stimsday2details/newegg16.png,stimsday2details/newperson33.png,stimsday2details/couple20.png,stimsday2details/gift20.png,stimsday2details/new33.png,stimsday2details/cn20.png,stimsday2details/n20.png,stimsday2details/t20.png,stimsday2details/ct20.png,0,8,8,8,,,,,0,0,0,0,,,,,,,,,,,,,,,,,,,,,,,None,None,,,,,,,,,,,,,,,,,,,,,,,,,,,,,,,,,,,,,,,,,,,,,,,,,,,,,,,,,,,,,,,,,,,,,,,,,,,,,,,,,,,,,,,,,,,001,38,2020_Jan_14_1538,viewing,3.1.2,60.00382429148216,
south.png,stims/wedding-20.1a.mp4,stims/wedding-20.1b.mp4,stims/wedding-20.2a.mp4,stims/wedding-20.3b.mp4,stims/wedding-20.4a.mp4,stims/wedding-20.5.mp4,stimsday2details/egg20.png,stimsday2details/newegg16.png,stimsday2details/newperson33.png,stimsday2details/couple20.png,stimsday2details/gift20.png,stimsday2details/new33.png,stimsday2details/cn20.png,stimsday2details/n20.png,stimsday2details/t20.png,stimsday2details/ct20.png,0,8,8,8,,,,,,,,,0,0,0,0,,,,,,,,,,,,,,,,,,,,,2.93848929554224,None,1195.3692628098652,1220.418919536285,1220.4356159698218,None,1229.4353390010074,1246.4184006555006,1246.43513385579,1269.4183353008702,1269.4348740167916,1293.418064499274,1293.4345349203795,None,,,,,,,,,,,,,,,,,,,,,,,,,,,,,,,,,,,,,,,,,,,,,,,,,,,,,,,,,,,,,,,,,,,,,,,,,,,,,001,38,2020_Jan_14_1538,viewing,3.1.2,60.00382429148216,
south.png,stims/wedding-20.1a.mp4,stims/wedding-20.1b.mp4,stims/wedding-20.2a.mp4,stims/wedding-20.3b.mp4,stims/wedding-20.4a.mp4,stims/wedding-20.5.mp4,stimsday2details/egg20.png,stimsday2details/newegg16.png,stimsday2details/newperson33.png,stimsday2details/couple20.png,stimsday2details/gift20.png,stimsday2details/new33.png,stimsday2details/cn20.png,stimsday2details/n20.png,stimsday2details/t20.png,stimsday2details/ct20.png,0,8,8,8,,,,,,,,,,,,,0,0,0,0,,,,,,,,,,,,,,,,,,,,,,,,,,,,,,,None,None,None,None,None,None,None,None,None,None,None,None,None,None,None,None,None,None,None,,None,None,None,,None,None,,,,,,,,,,,,,,,,,,,,,,,,,,,,,,,,,,,,,,,,,,,,,,,,,,,001,38,2020_Jan_14_1538,viewing,3.1.2,60.00382429148216,
south.png,stims/wedding-20.1a.mp4,stims/wedding-20.1b.mp4,stims/wedding-20.2a.mp4,stims/wedding-20.3b.mp4,stims/wedding-20.4a.mp4,stims/wedding-20.5.mp4,stimsday2details/egg20.png,stimsday2details/newegg16.png,stimsday2details/newperson33.png,stimsday2details/couple20.png,stimsday2details/gift20.png,stimsday2details/new33.png,stimsday2details/cn20.png,stimsday2details/n20.png,stimsday2details/t20.png,stimsday2details/ct20.png,0,8,8,8,,,,,,,,,,,,,,,,,,,,,,,,,,,,,,,,,,,,,,,,,,,,,,,,,,,,,,,,,,,,,,,,,,,,,,,,,3.704335540533066e-05,None,2,1.0323176523670554,1316.4872893877327,None,1316.4872893877327,None,1316.4872893877327,None,1318.4677501944825,None,1,0.7667583050206304,1318.4677501944825,None,1318.4677501944825,None,1320.46753480006,None,1320.46753480006,None,2,0.6855410169810057,1320.46753480006,None,1,1.135616078041494,1322.4675139850006,None,1322.4675139850006,None,1322.4675139850006,None,1324.4675309956074,None,1324.4675309956074,None,1,0.6354766944423318,1324.4675309956074,None,1326.4674649322405,None,1326.4674649322405,None,2,0.6355984136462212,1326.4674649322405,None,001,38,2020_Jan_14_1538,viewing,3.1.2,60.00382429148216,
north.png,stims/wedding-6.1a.mp4,stims/wedding-6.1b.mp4,stims/wedding-6.2a.mp4,stims/wedding-6.3a.mp4,stims/wedding-6.4a.mp4,stims/wedding-6.5.mp4,stimsday2details/newegg17.png,stimsday2details/egg6.png,stimsday2details/couple6.png,stimsday2details/newperson34.png,stimsday2details/gift6.png,stimsday2details/new34.png,stimsday2details/n6.png,stimsday2details/cn6.png,stimsday2details/ct6.png,stimsday2details/t6.png,0,9,9,9,0,0,0,0,,,,,,,,,,,,,,,,,,,,,,,,,None,None,,,,,,,,,,,,,,,,,,,,,,,,,,,,,,,,,,,,,,,,,,,,,,,,,,,,,,,,,,,,,,,,,,,,,,,,,,,,,,,,,,,,,,,,,,,,,001,38,2020_Jan_14_1538,viewing,3.1.2,60.00382429148216,
north.png,stims/wedding-6.1a.mp4,stims/wedding-6.1b.mp4,stims/wedding-6.2a.mp4,stims/wedding-6.3a.mp4,stims/wedding-6.4a.mp4,stims/wedding-6.5.mp4,stimsday2details/newegg17.png,stimsday2details/egg6.png,stimsday2details/couple6.png,stimsday2details/newperson34.png,stimsday2details/gift6.png,stimsday2details/new34.png,stimsday2details/n6.png,stimsday2details/cn6.png,stimsday2details/ct6.png,stimsday2details/t6.png,0,9,9,9,,,,,0,0,0,0,,,,,,,,,,,,,,,,,,,,,,,1328.8507681125775,None,,,,,,,,,,,,,,,,,,,,,,,,,,,,,,,,,,,,,,,,,,,,,,,,,,,,,,,,,,,,,,,,,,,,,,,,,,,,,,,,,,,,,,,,,,,001,38,2020_Jan_14_1538,viewing,3.1.2,60.00382429148216,
north.png,stims/wedding-6.1a.mp4,stims/wedding-6.1b.mp4,stims/wedding-6.2a.mp4,stims/wedding-6.3a.mp4,stims/wedding-6.4a.mp4,stims/wedding-6.5.mp4,stimsday2details/newegg17.png,stimsday2details/egg6.png,stimsday2details/couple6.png,stimsday2details/newperson34.png,stimsday2details/gift6.png,stimsday2details/new34.png,stimsday2details/n6.png,stimsday2details/cn6.png,stimsday2details/ct6.png,stimsday2details/t6.png,0,9,9,9,,,,,,,,,0,0,0,0,,,,,,,,,,,,,,,,,,,,,3.0233061965554953,None,1339.1025754958391,1364.0838113110512,1364.0838113110512,None,1373.0837347367778,1390.0833365824074,1390.0833365824074,1413.0829852828756,1413.0829852828756,1437.0829457407817,1437.0829457407817,None,,,,,,,,,,,,,,,,,,,,,,,,,,,,,,,,,,,,,,,,,,,,,,,,,,,,,,,,,,,,,,,,,,,,,,,,,,,,,001,38,2020_Jan_14_1538,viewing,3.1.2,60.00382429148216,
north.png,stims/wedding-6.1a.mp4,stims/wedding-6.1b.mp4,stims/wedding-6.2a.mp4,stims/wedding-6.3a.mp4,stims/wedding-6.4a.mp4,stims/wedding-6.5.mp4,stimsday2details/newegg17.png,stimsday2details/egg6.png,stimsday2details/couple6.png,stimsday2details/newperson34.png,stimsday2details/gift6.png,stimsday2details/new34.png,stimsday2details/n6.png,stimsday2details/cn6.png,stimsday2details/ct6.png,stimsday2details/t6.png,0,9,9,9,,,,,,,,,,,,,0,0,0,0,,,,,,,,,,,,,,,,,,,,,,,,,,,,,,,None,None,None,None,None,None,None,None,None,None,None,None,None,None,None,None,None,None,None,,None,None,None,,None,None,,,,,,,,,,,,,,,,,,,,,,,,,,,,,,,,,,,,,,,,,,,,,,,,,,,001,38,2020_Jan_14_1538,viewing,3.1.2,60.00382429148216,
north.png,stims/wedding-6.1a.mp4,stims/wedding-6.1b.mp4,stims/wedding-6.2a.mp4,stims/wedding-6.3a.mp4,stims/wedding-6.4a.mp4,stims/wedding-6.5.mp4,stimsday2details/newegg17.png,stimsday2details/egg6.png,stimsday2details/couple6.png,stimsday2details/newperson34.png,stimsday2details/gift6.png,stimsday2details/new34.png,stimsday2details/n6.png,stimsday2details/cn6.png,stimsday2details/ct6.png,stimsday2details/t6.png,0,9,9,9,,,,,,,,,,,,,,,,,,,,,,,,,,,,,,,,,,,,,,,,,,,,,,,,,,,,,,,,,,,,,,,,,,,,,,,,,4.0168873965740204e-05,None,1,1.0186563460156322,1461.266033411026,None,1461.266033411026,None,1461.266033411026,None,1463.2659309878945,None,2,1.2349819708615541,1463.2659309878945,None,1463.2659309878945,None,1465.2658890001476,None,1465.2658890001476,None,1,0.8693265737965703,1465.2658890001476,None,2,1.0861179986968637,1467.265696468763,None,1467.265696468763,None,1467.265696468763,None,1469.2656764816493,None,1469.2656764816493,None,1,1.0189817789942026,1469.2656764816493,None,1471.2658298844472,None,1471.2658298844472,None,1,1.8852903060615063,1471.2658298844472,None,001,38,2020_Jan_14_1538,viewing,3.1.2,60.00382429148216,
north.png,stims/wedding-28.1a.mp4,stims/wedding-28.1b.mp4,stims/wedding-28.2a.mp4,stims/wedding-28.3a.mp4,stims/wedding-28.4a.mp4,stims/wedding-28.5.mp4,stimsday2details/egg28.png,stimsday2details/newegg18.png,stimsday2details/couple28.png,stimsday2details/newperson35.png,stimsday2details/new35.png,stimsday2details/gift28.png,stimsday2details/cn28.png,stimsday2details/n28.png,stimsday2details/t28.png,stimsday2details/ct28.png,0,10,10,10,0,0,0,0,,,,,,,,,,,,,,,,,,,,,,,,,None,None,,,,,,,,,,,,,,,,,,,,,,,,,,,,,,,,,,,,,,,,,,,,,,,,,,,,,,,,,,,,,,,,,,,,,,,,,,,,,,,,,,,,,,,,,,,,,001,38,2020_Jan_14_1538,viewing,3.1.2,60.00382429148216,
north.png,stims/wedding-28.1a.mp4,stims/wedding-28.1b.mp4,stims/wedding-28.2a.mp4,stims/wedding-28.3a.mp4,stims/wedding-28.4a.mp4,stims/wedding-28.5.mp4,stimsday2details/egg28.png,stimsday2details/newegg18.png,stimsday2details/couple28.png,stimsday2details/newperson35.png,stimsday2details/new35.png,stimsday2details/gift28.png,stimsday2details/cn28.png,stimsday2details/n28.png,stimsday2details/t28.png,stimsday2details/ct28.png,0,10,10,10,,,,,0,0,0,0,,,,,,,,,,,,,,,,,,,,,,,1473.5157913323492,None,,,,,,,,,,,,,,,,,,,,,,,,,,,,,,,,,,,,,,,,,,,,,,,,,,,,,,,,,,,,,,,,,,,,,,,,,,,,,,,,,,,,,,,,,,,001,38,2020_Jan_14_1538,viewing,3.1.2,60.00382429148216,
north.png,stims/wedding-28.1a.mp4,stims/wedding-28.1b.mp4,stims/wedding-28.2a.mp4,stims/wedding-28.3a.mp4,stims/wedding-28.4a.mp4,stims/wedding-28.5.mp4,stimsday2details/egg28.png,stimsday2details/newegg18.png,stimsday2details/couple28.png,stimsday2details/newperson35.png,stimsday2details/new35.png,stimsday2details/gift28.png,stimsday2details/cn28.png,stimsday2details/n28.png,stimsday2details/t28.png,stimsday2details/ct28.png,0,10,10,10,,,,,,,,,0,0,0,0,,,,,,,,,,,,,,,,,,,,,3.0788250351324677,None,1483.848829823546,1508.7651639897376,1508.7818489130586,None,1517.781690091826,1534.7650082111359,1534.7814550036564,1557.764747490175,1557.781276928261,1581.780937153846,1581.7975912606344,None,,,,,,,,,,,,,,,,,,,,,,,,,,,,,,,,,,,,,,,,,,,,,,,,,,,,,,,,,,,,,,,,,,,,,,,,,,,,,001,38,2020_Jan_14_1538,viewing,3.1.2,60.00382429148216,
north.png,stims/wedding-28.1a.mp4,stims/wedding-28.1b.mp4,stims/wedding-28.2a.mp4,stims/wedding-28.3a.mp4,stims/wedding-28.4a.mp4,stims/wedding-28.5.mp4,stimsday2details/egg28.png,stimsday2details/newegg18.png,stimsday2details/couple28.png,stimsday2details/newperson35.png,stimsday2details/new35.png,stimsday2details/gift28.png,stimsday2details/cn28.png,stimsday2details/n28.png,stimsday2details/t28.png,stimsday2details/ct28.png,0,10,10,10,,,,,,,,,,,,,0,0,0,0,,,,,,,,,,,,,,,,,,,,,,,,,,,,,,,None,None,None,None,None,None,None,None,None,None,None,None,None,None,None,None,None,None,None,,None,None,None,,None,None,,,,,,,,,,,,,,,,,,,,,,,,,,,,,,,,,,,,,,,,,,,,,,,,,,,001,38,2020_Jan_14_1538,viewing,3.1.2,60.00382429148216,
north.png,stims/wedding-28.1a.mp4,stims/wedding-28.1b.mp4,stims/wedding-28.2a.mp4,stims/wedding-28.3a.mp4,stims/wedding-28.4a.mp4,stims/wedding-28.5.mp4,stimsday2details/egg28.png,stimsday2details/newegg18.png,stimsday2details/couple28.png,stimsday2details/newperson35.png,stimsday2details/new35.png,stimsday2details/gift28.png,stimsday2details/cn28.png,stimsday2details/n28.png,stimsday2details/t28.png,stimsday2details/ct28.png,0,10,10,10,,,,,,,,,,,,,,,,,,,,,,,,,,,,,,,,,,,,,,,,,,,,,,,,,,,,,,,,,,,,,,,,,,,,,,,,,2.675037831068039e-05,None,2,0.8002937156707048,1606.4139580996707,None,1606.4139580996707,None,1606.4139580996707,None,1608.413936949335,None,1,0.6857946515083313,1608.413936949335,None,1608.413936949335,None,1610.414109676145,None,1610.414109676145,None,1,0.901532618328929,1610.414109676145,None,1,0.835496642626822,1612.4138207836077,None,1612.4138207836077,None,1612.4138207836077,None,1614.413860457018,None,1614.413860457018,None,2,0.9687831560149789,1614.413860457018,None,1616.4140179269016,None,1616.4140179269016,None,1,1.2686066729947925,1616.4140179269016,None,001,38,2020_Jan_14_1538,viewing,3.1.2,60.00382429148216,
south.png,stims/wedding-34.1a.mp4,stims/wedding-34.1b.mp4,stims/wedding-34.2b.mp4,stims/wedding-34.3a.mp4,stims/wedding-34.4b.mp4,stims/wedding-34.5.mp4,stimsday2details/painting34.png,stimsday2details/newpainting18.png,stimsday2details/couple34.png,stimsday2details/newperson36.png,stimsday2details/new36.png,stimsday2details/gift34.png,stimsday2details/n34.png,stimsday2details/cn34.png,stimsday2details/t34.png,stimsday2details/ct34.png,0,11,11,11,0,0,0,0,,,,,,,,,,,,,,,,,,,,,,,,,1618.4140004971996,None,,,,,,,,,,,,,,,,,,,,,,,,,,,,,,,,,,,,,,,,,,,,,,,,,,,,,,,,,,,,,,,,,,,,,,,,,,,,,,,,,,,,,,,,,,,,,001,38,2020_Jan_14_1538,viewing,3.1.2,60.00382429148216,
south.png,stims/wedding-34.1a.mp4,stims/wedding-34.1b.mp4,stims/wedding-34.2b.mp4,stims/wedding-34.3a.mp4,stims/wedding-34.4b.mp4,stims/wedding-34.5.mp4,stimsday2details/painting34.png,stimsday2details/newpainting18.png,stimsday2details/couple34.png,stimsday2details/newperson36.png,stimsday2details/new36.png,stimsday2details/gift34.png,stimsday2details/n34.png,stimsday2details/cn34.png,stimsday2details/t34.png,stimsday2details/ct34.png,0,11,11,11,,,,,0,0,0,0,,,,,,,,,,,,,,,,,,,,,,,None,None,,,,,,,,,,,,,,,,,,,,,,,,,,,,,,,,,,,,,,,,,,,,,,,,,,,,,,,,,,,,,,,,,,,,,,,,,,,,,,,,,,,,,,,,,,,001,38,2020_Jan_14_1538,viewing,3.1.2,60.00382429148216,
south.png,stims/wedding-34.1a.mp4,stims/wedding-34.1b.mp4,stims/wedding-34.2b.mp4,stims/wedding-34.3a.mp4,stims/wedding-34.4b.mp4,stims/wedding-34.5.mp4,stimsday2details/painting34.png,stimsday2details/newpainting18.png,stimsday2details/couple34.png,stimsday2details/newperson36.png,stimsday2details/new36.png,stimsday2details/gift34.png,stimsday2details/n34.png,stimsday2details/cn34.png,stimsday2details/t34.png,stimsday2details/ct34.png,0,11,11,11,,,,,,,,,0,0,0,0,,,,,,,,,,,,,,,,,,,,,None,None,None,None,None,None,None,None,None,None,None,None,None,None,,,,,,,,,,,,,,,,,,,,,,,,,,,,,,,,,,,,,,,,,,,,,,,,,,,,,,,,,,,,,,,,,,,,,,,,,,,,,001,38,2020_Jan_14_1538,viewing,3.1.2,60.00382429148216,
south.png,stims/wedding-34.1a.mp4,stims/wedding-34.1b.mp4,stims/wedding-34.2b.mp4,stims/wedding-34.3a.mp4,stims/wedding-34.4b.mp4,stims/wedding-34.5.mp4,stimsday2details/painting34.png,stimsday2details/newpainting18.png,stimsday2details/couple34.png,stimsday2details/newperson36.png,stimsday2details/new36.png,stimsday2details/gift34.png,stimsday2details/n34.png,stimsday2details/cn34.png,stimsday2details/t34.png,stimsday2details/ct34.png,0,11,11,11,,,,,,,,,,,,,0,0,0,0,,,,,,,,,,,,,,,,,,,,,,,,,,,,,,,2.918134158477187,None,1632.151822598651,1657.2301851511002,1657.246839958243,1666.230080133304,1666.246516189538,None,1683.2463285755366,1687.22979417257,1687.2466385597363,None,1710.246157065034,1714.2295092530549,1714.2458829721436,None,1738.2458340516314,None,"['2', '1']","[55.21610937267542, 2.9855624679476023]",1682.2463432624936,1687.22979417257,['2'],[2.1857534926384687],1709.2460700431839,1714.2295092530549,,,,,,,,,,,,,,,,,,,,,,,,,,,,,,,,,,,,,,,,,,,,,,,,,,,001,38,2020_Jan_14_1538,viewing,3.1.2,60.00382429148216,
south.png,stims/wedding-34.1a.mp4,stims/wedding-34.1b.mp4,stims/wedding-34.2b.mp4,stims/wedding-34.3a.mp4,stims/wedding-34.4b.mp4,stims/wedding-34.5.mp4,stimsday2details/painting34.png,stimsday2details/newpainting18.png,stimsday2details/couple34.png,stimsday2details/newperson36.png,stimsday2details/new36.png,stimsday2details/gift34.png,stimsday2details/n34.png,stimsday2details/cn34.png,stimsday2details/t34.png,stimsday2details/ct34.png,0,11,11,11,,,,,,,,,,,,,,,,,,,,,,,,,,,,,,,,,,,,,,,,,,,,,,,,,,,,,,,,,,,,,,,,,,,,,,,,,4.3206848204135895e-05,None,1,0.7323688250035048,1758.8322532158345,None,1758.8322532158345,None,1758.8322532158345,None,1760.812046578154,None,1,0.7524835160002112,1760.812046578154,None,1760.812046578154,None,1762.8120967466384,None,1762.8120967466384,None,1,0.5353981917724013,1762.8120967466384,None,1,1.5019532507285476,1764.811977751553,None,1764.811977751553,None,1764.811977751553,None,1766.8119524354115,None,1766.8119524354115,None,2,1.0854559307917953,1766.8119524354115,None,1768.8119761077687,None,1768.8119761077687,None,2,1.1687096012756228,1768.8119761077687,None,001,38,2020_Jan_14_1538,viewing,3.1.2,60.00382429148216,
