condsFile,northOrSouth,stimFile1a,stimFile1b,stimFile2,stimFile3,stimFile4,stimFile5,QeggPainting1,Qcharacter1,Qgift1,QeggPainting2,Qcharacter2,Qgift2,Qname1,Qtheme1,Qname2,Qtheme2,block.thisRepN,block.thisTrialN,block.thisN,block.thisIndex,trials.thisRepN,trials.thisTrialN,trials.thisN,trials.thisIndex,noQtrials.thisRepN,noQtrials.thisTrialN,noQtrials.thisN,noQtrials.thisIndex,Qtrials.thisRepN,Qtrials.thisTrialN,Qtrials.thisN,Qtrials.thisIndex,text.started,text.stopped,prep_trigger.keys,prep_trigger.rt,prep_trigger.started,prep_trigger.stopped,waiting.started,waiting.stopped,trigger.keys,trigger.rt,trigger.started,trigger.stopped,image_3.started,image_3.stopped,trialNoQs.started,trialNoQs.stopped,vid1a.started,vid1a.stopped,vid1b.started,vid1b.stopped,vid2.started,vid2.stopped,vid3.started,vid3.stopped,vid4.started,vid4.stopped,vid5.started,vid5.stopped,ISI2.started,ISI2.stopped,vid1a_q.started,vid1a_q.stopped,vid1b_q.started,vid1b_q.stopped,vid2_q.started,vid2_q.stopped,l2q.started,l2q.stopped,vid3_q.started,vid3_q.stopped,l3q.started,l3q.stopped,vid4_q.started,vid4_q.stopped,vid5_q.started,vid5_q.stopped,key_resp_2.keys,key_resp_2.rt,key_resp_2.started,key_resp_2.stopped,key_resp_3.keys,key_resp_3.started,key_resp_3.stopped,ISI7.started,ISI7.stopped,nameQresp.keys,nameQresp.rt,nameQresp.started,nameQresp.stopped,nameQ1.started,nameQ1.stopped,nameQ2.started,nameQ2.stopped,eggPainting1.started,eggPainting1.stopped,eggPaintingQresp.keys,eggPaintingQresp.rt,eggPaintingQresp.started,eggPaintingQresp.stopped,eggPainting2.started,eggPainting2.stopped,character1.started,character1.stopped,character2.started,character2.stopped,Qcharacter.keys,Qcharacter.rt,Qcharacter.started,Qcharacter.stopped,themeQresp.keys,themeQresp.rt,themeQresp.started,themeQresp.stopped,themeQ1.started,themeQ1.stopped,themeQ2.started,themeQ2.stopped,gift1.started,gift1.stopped,gift2.started,gift2.stopped,giftQresp.keys,giftQresp.rt,giftQresp.started,giftQresp.stopped,northorsouth1.started,northorsouth1.stopped,northOrSouthQ.keys,northOrSouthQ.rt,northOrSouthQ.started,northOrSouthQ.stopped,northorsouth2.started,northorsouth2.stopped,key_resp_3.rt,session,participant,date,expName,psychopyVersion,frameRate,
,,,,,,,,,,,,,,,,,,,,,,,,,,,,,,,,,,8.954393042251468,None,g,0.9212214015424252,8.954393042251468,None,,,,,,,,,,,,,,,,,,,,,,,,,,,,,,,,,,,,,,,,,,,,,,,,,,,,,,,,,,,,,,,,,,,,,,,,,,,,,,,,,,,,,,,,,,,,,,,,,,,001,42,2020_Jan_23_1426,Block4,3.1.2,59.984399859149136,
,,,,,,,,,,,,,,,,,,,,,,,,,,,,,,,,,,,,,,,,9.887964773923159,None,equal,18.068623112514615,9.887964773923159,None,,,,,,,,,,,,,,,,,,,,,,,,,,,,,,,,,,,,,,,,,,,,,,,,,,,,,,,,,,,,,,,,,,,,,,,,,,,,,,,,,,,,,,,,,,,,,001,42,2020_Jan_23_1426,Block4,3.1.2,59.984399859149136,
videoBlock_schemaN_pathB_5.csv,north.png,stims/wedding-18.1a.mp4,stims/wedding-18.1b.mp4,stims/wedding-18.2b.mp4,stims/wedding-18.3b.mp4,stims/wedding-18.4b.mp4,stims/wedding-18.5.mp4,stimsday1details/newpainting5.png,stimsday1details/couple18.png,stimsday1details/new17.png,stimsday1details/painting18.png,stimsday1details/newperson17.png,stimsday1details/gift18.png,stimsday1details/cn18.png,stimsday1details/t18.png,stimsday1details/n18.png,stimsday1details/ct18.png,0,0,0,4,0,0,0,0,0,0,0,0,,,,,,,,,,,,,,,,,27.99063328281045,None,None,None,None,None,None,None,None,None,None,None,None,None,None,None,,,,,,,,,,,,,,,,,,,,,,,,,,,,,,,,,,,,,,,,,,,,,,,,,,,,,,,,,,,,,,,,,,,,,,,,,,,,,001,42,2020_Jan_23_1426,Block4,3.1.2,59.984399859149136,
videoBlock_schemaN_pathB_5.csv,north.png,stims/wedding-18.1a.mp4,stims/wedding-18.1b.mp4,stims/wedding-18.2b.mp4,stims/wedding-18.3b.mp4,stims/wedding-18.4b.mp4,stims/wedding-18.5.mp4,stimsday1details/newpainting5.png,stimsday1details/couple18.png,stimsday1details/new17.png,stimsday1details/painting18.png,stimsday1details/newperson17.png,stimsday1details/gift18.png,stimsday1details/cn18.png,stimsday1details/t18.png,stimsday1details/n18.png,stimsday1details/ct18.png,0,0,0,4,0,0,0,0,,,,,0,0,0,0,,,,,,,,,,,,,,,,,,,,,,,,,,,,,2.690473743714392,None,40.587411135435104,56.88720027077943,56.90386998653412,None,65.90375867020339,None,82.9035530956462,86.88682221621275,86.90350364428014,109.8864592332393,109.90315220411867,113.88668877165765,113.90315902326256,137.8863620236516,137.90304426010698,None,['2'],[2.7688784124329686],81.90355631150305,86.88682221621275,None,108.9034018535167,113.88668877165765,,,,,,,,,,,,,,,,,,,,,,,,,,,,,,,,,,,,,,,,,,,,,,,,,,,,001,42,2020_Jan_23_1426,Block4,3.1.2,59.984399859149136,
videoBlock_schemaN_pathB_5.csv,north.png,stims/wedding-18.1a.mp4,stims/wedding-18.1b.mp4,stims/wedding-18.2b.mp4,stims/wedding-18.3b.mp4,stims/wedding-18.4b.mp4,stims/wedding-18.5.mp4,stimsday1details/newpainting5.png,stimsday1details/couple18.png,stimsday1details/new17.png,stimsday1details/painting18.png,stimsday1details/newperson17.png,stimsday1details/gift18.png,stimsday1details/cn18.png,stimsday1details/t18.png,stimsday1details/n18.png,stimsday1details/ct18.png,0,0,0,4,0,0,0,0,,,,,,,,,,,,,,,,,,,,,,,,,,,,,,,,,,,,,,,,,,,,,,,,,,,,,,,,,,,,,,6.339605897665024e-05,None,2,1.2356802709400654,153.03600019402802,None,153.03600019402802,None,153.03600019402802,None,155.01943782158196,None,2,1.2353132283315063,155.01943782158196,None,155.01943782158196,None,157.01928176824003,None,157.01928176824003,None,1,0.9023321606218815,157.01928176824003,None,1,1.8855510465800762,159.0192563943565,None,159.0192563943565,None,159.0192563943565,None,161.01923184562474,None,161.01923184562474,None,2,0.8686562161892653,161.01923184562474,None,163.01922455057502,None,1,0.7855891631916165,163.01922455057502,None,163.01922455057502,None,,001,42,2020_Jan_23_1426,Block4,3.1.2,59.984399859149136,
videoBlock_schemaN_pathB_4.csv,north.png,stims/wedding-12.1a.mp4,stims/wedding-12.1b.mp4,stims/wedding-12.2b.mp4,stims/wedding-12.3b.mp4,stims/wedding-12.4b.mp4,stims/wedding-12.5.mp4,stimsday1details/painting12.png,stimsday1details/couple12.png,stimsday1details/gift12.png,stimsday1details/newpainting4.png,stimsday1details/newperson16.png,stimsday1details/new16.png,stimsday1details/n12.png,stimsday1details/t12.png,stimsday1details/cn12.png,stimsday1details/ct12.png,0,1,1,3,0,0,0,0,0,0,0,0,,,,,,,,,,,,,,,,,165.20251979865134,None,2.759689343161881,None,174.95244612265378,191.2021876340732,191.21885481476784,199.2020829822868,199.21875035576522,None,216.21877246070653,239.20174337923527,239.2185455020517,None,263.21805667039007,None,,,,,,,,,,,,,,,,,,,,,,,,,,,,,,,,,,,,,,,,,,,,,,,,,,,,,,,,,,,,,,,,,,,,,,,,,,,,,001,42,2020_Jan_23_1426,Block4,3.1.2,59.984399859149136,
videoBlock_schemaN_pathB_4.csv,north.png,stims/wedding-12.1a.mp4,stims/wedding-12.1b.mp4,stims/wedding-12.2b.mp4,stims/wedding-12.3b.mp4,stims/wedding-12.4b.mp4,stims/wedding-12.5.mp4,stimsday1details/painting12.png,stimsday1details/couple12.png,stimsday1details/gift12.png,stimsday1details/newpainting4.png,stimsday1details/newperson16.png,stimsday1details/new16.png,stimsday1details/n12.png,stimsday1details/t12.png,stimsday1details/cn12.png,stimsday1details/ct12.png,0,1,1,3,0,0,0,0,,,,,0,0,0,0,,,,,,,,,,,,,,,,,,,,,,,,,,,,,None,None,None,None,None,None,None,None,None,None,None,None,None,None,None,None,None,None,None,,None,None,None,None,None,,,,,,,,,,,,,,,,,,,,,,,,,,,,,,,,,,,,,,,,,,,,,,,,,,,,001,42,2020_Jan_23_1426,Block4,3.1.2,59.984399859149136,
videoBlock_schemaN_pathB_4.csv,north.png,stims/wedding-12.1a.mp4,stims/wedding-12.1b.mp4,stims/wedding-12.2b.mp4,stims/wedding-12.3b.mp4,stims/wedding-12.4b.mp4,stims/wedding-12.5.mp4,stimsday1details/painting12.png,stimsday1details/couple12.png,stimsday1details/gift12.png,stimsday1details/newpainting4.png,stimsday1details/newperson16.png,stimsday1details/new16.png,stimsday1details/n12.png,stimsday1details/t12.png,stimsday1details/cn12.png,stimsday1details/ct12.png,0,1,1,3,0,0,0,0,,,,,,,,,,,,,,,,,,,,,,,,,,,,,,,,,,,,,,,,,,,,,,,,,,,,,,,,,,,,,,3.3076852560043335e-05,None,1,1.0025031501427293,280.1844031345099,None,280.1844031345099,None,280.1844031345099,None,282.16768412012607,None,1,1.0851369062438607,282.16768412012607,None,282.16768412012607,None,284.16761956643313,None,284.16761956643313,None,1,1.252392872236669,284.16761956643313,None,1,0.8858795873820782,286.16765384655446,None,286.16765384655446,None,286.16765384655446,None,288.1676266025752,None,288.1676266025752,None,1,0.8516729325056076,288.1676266025752,None,290.16776042431593,None,1,0.9351463047787547,290.16776042431593,None,290.16776042431593,None,,001,42,2020_Jan_23_1426,Block4,3.1.2,59.984399859149136,
videoBlock_schemaN_pathA_6.csv,north.png,stims/wedding-40.1a.mp4,stims/wedding-40.1b.mp4,stims/wedding-40.2a.mp4,stims/wedding-40.3a.mp4,stims/wedding-40.4a.mp4,stims/wedding-40.5.mp4,stimsday1details/newegg6.png,stimsday1details/newperson6.png,stimsday1details/new6.png,stimsday1details/egg40.png,stimsday1details/couple40.png,stimsday1details/gift40.png,stimsday1details/n40.png,stimsday1details/t40.png,stimsday1details/cn40.png,stimsday1details/ct40.png,0,2,2,2,0,0,0,0,0,0,0,0,,,,,,,,,,,,,,,,,292.3842388186604,None,2.722237571142614,None,302.101035002619,318.3839149447158,318.4005832951516,None,326.40062904637307,None,343.4002838656306,366.38335448876023,366.3999876184389,None,390.39985196944326,None,,,,,,,,,,,,,,,,,,,,,,,,,,,,,,,,,,,,,,,,,,,,,,,,,,,,,,,,,,,,,,,,,,,,,,,,,,,,,001,42,2020_Jan_23_1426,Block4,3.1.2,59.984399859149136,
videoBlock_schemaN_pathA_6.csv,north.png,stims/wedding-40.1a.mp4,stims/wedding-40.1b.mp4,stims/wedding-40.2a.mp4,stims/wedding-40.3a.mp4,stims/wedding-40.4a.mp4,stims/wedding-40.5.mp4,stimsday1details/newegg6.png,stimsday1details/newperson6.png,stimsday1details/new6.png,stimsday1details/egg40.png,stimsday1details/couple40.png,stimsday1details/gift40.png,stimsday1details/n40.png,stimsday1details/t40.png,stimsday1details/cn40.png,stimsday1details/ct40.png,0,2,2,2,0,0,0,0,,,,,0,0,0,0,,,,,,,,,,,,,,,,,,,,,,,,,,,,,None,None,None,None,None,None,None,None,None,None,None,None,None,None,None,None,None,None,None,,None,None,None,None,None,,,,,,,,,,,,,,,,,,,,,,,,,,,,,,,,,,,,,,,,,,,,,,,,,,,,001,42,2020_Jan_23_1426,Block4,3.1.2,59.984399859149136,
videoBlock_schemaN_pathA_6.csv,north.png,stims/wedding-40.1a.mp4,stims/wedding-40.1b.mp4,stims/wedding-40.2a.mp4,stims/wedding-40.3a.mp4,stims/wedding-40.4a.mp4,stims/wedding-40.5.mp4,stimsday1details/newegg6.png,stimsday1details/newperson6.png,stimsday1details/new6.png,stimsday1details/egg40.png,stimsday1details/couple40.png,stimsday1details/gift40.png,stimsday1details/n40.png,stimsday1details/t40.png,stimsday1details/cn40.png,stimsday1details/ct40.png,0,2,2,2,0,0,0,0,,,,,,,,,,,,,,,,,,,,,,,,,,,,,,,,,,,,,,,,,,,,,,,,,,,,,,,,,,,,,,3.53669747710228e-05,None,None,,408.34950043819845,None,408.34950043819845,None,408.34950043819845,None,410.3329384997487,None,None,,410.3329384997487,None,410.3329384997487,None,412.33273606654257,None,412.33273606654257,None,2,1.1041310224682093,412.33273606654257,None,1,1.0519601851701736,414.3328965147957,None,414.3328965147957,None,414.3328965147957,None,416.33268519863486,None,416.33268519863486,None,2,0.9690105998888612,416.33268519863486,None,418.3326626876369,None,1,0.7522156313061714,418.3326626876369,None,418.3326626876369,None,,001,42,2020_Jan_23_1426,Block4,3.1.2,59.984399859149136,
videoBlock_schemaN_pathB_6.csv,north.png,stims/wedding-16.1a.mp4,stims/wedding-16.1b.mp4,stims/wedding-16.2b.mp4,stims/wedding-16.3b.mp4,stims/wedding-16.4b.mp4,stims/wedding-16.5.mp4,stimsday1details/painting16.png,stimsday1details/newperson18.png,stimsday1details/gift16.png,stimsday1details/newpainting6.png,stimsday1details/couple16.png,stimsday1details/new18.png,stimsday1details/n16.png,stimsday1details/ct16.png,stimsday1details/cn16.png,stimsday1details/t16.png,0,3,3,5,0,0,0,0,0,0,0,0,,,,,,,,,,,,,,,,,420.5659037521109,None,2.8639661902561784,None,430.4324475945905,None,446.5823098104447,454.5657046753913,454.5822067372501,471.56526481267065,471.58218332380056,494.5652297604829,494.581848279573,518.5646775364876,518.5814049076289,None,,,,,,,,,,,,,,,,,,,,,,,,,,,,,,,,,,,,,,,,,,,,,,,,,,,,,,,,,,,,,,,,,,,,,,,,,,,,,001,42,2020_Jan_23_1426,Block4,3.1.2,59.984399859149136,
videoBlock_schemaN_pathB_6.csv,north.png,stims/wedding-16.1a.mp4,stims/wedding-16.1b.mp4,stims/wedding-16.2b.mp4,stims/wedding-16.3b.mp4,stims/wedding-16.4b.mp4,stims/wedding-16.5.mp4,stimsday1details/painting16.png,stimsday1details/newperson18.png,stimsday1details/gift16.png,stimsday1details/newpainting6.png,stimsday1details/couple16.png,stimsday1details/new18.png,stimsday1details/n16.png,stimsday1details/ct16.png,stimsday1details/cn16.png,stimsday1details/t16.png,0,3,3,5,0,0,0,0,,,,,0,0,0,0,,,,,,,,,,,,,,,,,,,,,,,,,,,,,None,None,None,None,None,None,None,None,None,None,None,None,None,None,None,None,None,None,None,,None,None,None,None,None,,,,,,,,,,,,,,,,,,,,,,,,,,,,,,,,,,,,,,,,,,,,,,,,,,,,001,42,2020_Jan_23_1426,Block4,3.1.2,59.984399859149136,
videoBlock_schemaN_pathB_6.csv,north.png,stims/wedding-16.1a.mp4,stims/wedding-16.1b.mp4,stims/wedding-16.2b.mp4,stims/wedding-16.3b.mp4,stims/wedding-16.4b.mp4,stims/wedding-16.5.mp4,stimsday1details/painting16.png,stimsday1details/newperson18.png,stimsday1details/gift16.png,stimsday1details/newpainting6.png,stimsday1details/couple16.png,stimsday1details/new18.png,stimsday1details/n16.png,stimsday1details/ct16.png,stimsday1details/cn16.png,stimsday1details/t16.png,0,3,3,5,0,0,0,0,,,,,,,,,,,,,,,,,,,,,,,,,,,,,,,,,,,,,,,,,,,,,,,,,,,,,,,,,,,,,,2.9799528419971466e-05,None,1,1.901988297700882,536.3314271904528,None,536.3314271904528,None,536.3314271904528,None,538.3146577747539,None,1,0.702126526273787,538.3146577747539,None,538.3146577747539,None,540.3146488014609,None,540.3146488014609,None,2,1.2351475087925792,540.3146488014609,None,2,1.335788257420063,542.3144452851266,None,542.3144452851266,None,542.3144452851266,None,544.31459826231,None,544.31459826231,None,1,0.9856217876076698,544.31459826231,None,546.3143909210339,None,1,0.8186113573610783,546.3143909210339,None,546.3143909210339,None,,001,42,2020_Jan_23_1426,Block4,3.1.2,59.984399859149136,
videoBlock_schemaN_pathA_5.csv,north.png,stims/wedding-15.1a.mp4,stims/wedding-15.1b.mp4,stims/wedding-15.2a.mp4,stims/wedding-15.3a.mp4,stims/wedding-15.4a.mp4,stims/wedding-15.5.mp4,stimsday1details/egg15.png,stimsday1details/couple15.png,stimsday1details/gift15.png,stimsday1details/newegg5.png,stimsday1details/newperson5.png,stimsday1details/new5.png,stimsday1details/n15.png,stimsday1details/t15.png,stimsday1details/cn15.png,stimsday1details/ct15.png,0,4,4,1,0,0,0,0,0,0,0,0,,,,,,,,,,,,,,,,,548.597728068009,None,2.9048749590292573,None,558.4976351922378,574.5975694004446,574.6142224241048,582.5972740985453,582.6139402613044,None,599.6139200553298,622.596770029515,622.613436547108,646.596606512554,646.6132294982672,None,,,,,,,,,,,,,,,,,,,,,,,,,,,,,,,,,,,,,,,,,,,,,,,,,,,,,,,,,,,,,,,,,,,,,,,,,,,,,001,42,2020_Jan_23_1426,Block4,3.1.2,59.984399859149136,
videoBlock_schemaN_pathA_5.csv,north.png,stims/wedding-15.1a.mp4,stims/wedding-15.1b.mp4,stims/wedding-15.2a.mp4,stims/wedding-15.3a.mp4,stims/wedding-15.4a.mp4,stims/wedding-15.5.mp4,stimsday1details/egg15.png,stimsday1details/couple15.png,stimsday1details/gift15.png,stimsday1details/newegg5.png,stimsday1details/newperson5.png,stimsday1details/new5.png,stimsday1details/n15.png,stimsday1details/t15.png,stimsday1details/cn15.png,stimsday1details/ct15.png,0,4,4,1,0,0,0,0,,,,,0,0,0,0,,,,,,,,,,,,,,,,,,,,,,,,,,,,,None,None,None,None,None,None,None,None,None,None,None,None,None,None,None,None,None,None,None,,None,None,None,None,None,,,,,,,,,,,,,,,,,,,,,,,,,,,,,,,,,,,,,,,,,,,,,,,,,,,,001,42,2020_Jan_23_1426,Block4,3.1.2,59.984399859149136,
videoBlock_schemaN_pathA_5.csv,north.png,stims/wedding-15.1a.mp4,stims/wedding-15.1b.mp4,stims/wedding-15.2a.mp4,stims/wedding-15.3a.mp4,stims/wedding-15.4a.mp4,stims/wedding-15.5.mp4,stimsday1details/egg15.png,stimsday1details/couple15.png,stimsday1details/gift15.png,stimsday1details/newegg5.png,stimsday1details/newperson5.png,stimsday1details/new5.png,stimsday1details/n15.png,stimsday1details/t15.png,stimsday1details/cn15.png,stimsday1details/ct15.png,0,4,4,1,0,0,0,0,,,,,,,,,,,,,,,,,,,,,,,,,,,,,,,,,,,,,,,,,,,,,,,,,,,,,,,,,,,,,,4.144012928009033e-05,None,1,1.301762506365776,664.829748282209,None,664.829748282209,None,664.829748282209,None,666.8128884322941,None,1,0.8520959075540304,666.8128884322941,None,666.8128884322941,None,668.8128549596295,None,668.8128549596295,None,None,,668.8128549596295,None,None,,670.8129758313298,None,670.8129758313298,None,670.8129758313298,None,672.8129924051464,None,672.8129924051464,None,1,1.135589667595923,672.8129924051464,None,674.8127815658227,None,None,,674.8127815658227,None,674.8127815658227,None,,001,42,2020_Jan_23_1426,Block4,3.1.2,59.984399859149136,
videoBlock_schemaN_pathA_4.csv,north.png,stims/wedding-13.1a.mp4,stims/wedding-13.1b.mp4,stims/wedding-13.2a.mp4,stims/wedding-13.3a.mp4,stims/wedding-13.4a.mp4,stims/wedding-13.5.mp4,stimsday1details/egg13.png,stimsday1details/couple13.png,stimsday1details/new4.png,stimsday1details/newegg4.png,stimsday1details/newperson4.png,stimsday1details/gift13.png,stimsday1details/n13.png,stimsday1details/ct13.png,stimsday1details/cn13.png,stimsday1details/t13.png,0,5,5,0,0,0,0,0,0,0,0,0,,,,,,,,,,,,,,,,,677.1129184886813,None,None,None,None,None,None,None,None,None,None,None,None,None,None,None,,,,,,,,,,,,,,,,,,,,,,,,,,,,,,,,,,,,,,,,,,,,,,,,,,,,,,,,,,,,,,,,,,,,,,,,,,,,,001,42,2020_Jan_23_1426,Block4,3.1.2,59.984399859149136,
videoBlock_schemaN_pathA_4.csv,north.png,stims/wedding-13.1a.mp4,stims/wedding-13.1b.mp4,stims/wedding-13.2a.mp4,stims/wedding-13.3a.mp4,stims/wedding-13.4a.mp4,stims/wedding-13.5.mp4,stimsday1details/egg13.png,stimsday1details/couple13.png,stimsday1details/new4.png,stimsday1details/newegg4.png,stimsday1details/newperson4.png,stimsday1details/gift13.png,stimsday1details/n13.png,stimsday1details/ct13.png,stimsday1details/cn13.png,stimsday1details/t13.png,0,5,5,0,0,0,0,0,,,,,0,0,0,0,,,,,,,,,,,,,,,,,,,,,,,,,,,,,2.699001765809953,None,689.9625999042764,None,706.2623906787485,None,715.2622809391469,None,732.2620725296438,736.262211183086,736.262211183086,759.2617279291153,759.2617279291153,763.2618650961667,763.2618650961667,787.2613755697384,787.2613755697384,None,['1'],[2.4852694189175963],731.2622273489833,736.262211183086,['2'],758.2618828713894,763.2618650961667,,,,,,,,,,,,,,,,,,,,,,,,,,,,,,,,,,,,,,,,,,,,,,,,,,,[2.5200372114777565],001,42,2020_Jan_23_1426,Block4,3.1.2,59.984399859149136,
videoBlock_schemaN_pathA_4.csv,north.png,stims/wedding-13.1a.mp4,stims/wedding-13.1b.mp4,stims/wedding-13.2a.mp4,stims/wedding-13.3a.mp4,stims/wedding-13.4a.mp4,stims/wedding-13.5.mp4,stimsday1details/egg13.png,stimsday1details/couple13.png,stimsday1details/new4.png,stimsday1details/newegg4.png,stimsday1details/newperson4.png,stimsday1details/gift13.png,stimsday1details/n13.png,stimsday1details/ct13.png,stimsday1details/cn13.png,stimsday1details/t13.png,0,5,5,0,0,0,0,0,,,,,,,,,,,,,,,,,,,,,,,,,,,,,,,,,,,,,,,,,,,,,,,,,,,,,,,,,,,,,,3.2220035791397095e-05,None,None,,801.6112585999072,None,801.6112585999072,None,801.6112585999072,None,803.6113650416955,None,None,,803.6113650416955,None,803.6113650416955,None,805.6113254120573,None,805.6113254120573,None,None,,805.6113254120573,None,None,,807.6111146053299,None,807.6111146053299,None,807.6111146053299,None,809.611092322506,None,809.611092322506,None,None,,809.611092322506,None,811.6110718799755,None,None,,811.6110718799755,None,811.6110718799755,None,,001,42,2020_Jan_23_1426,Block4,3.1.2,59.984399859149136,
