condsFile,northOrSouth,stimFile1a,stimFile1b,stimFile2,stimFile3,stimFile4,stimFile5,QeggPainting1,Qcharacter1,Qgift1,QeggPainting2,Qcharacter2,Qgift2,Qname1,Qtheme1,Qname2,Qtheme2,block.thisRepN,block.thisTrialN,block.thisN,block.thisIndex,trials.thisRepN,trials.thisTrialN,trials.thisN,trials.thisIndex,noQtrials.thisRepN,noQtrials.thisTrialN,noQtrials.thisN,noQtrials.thisIndex,Qtrials.thisRepN,Qtrials.thisTrialN,Qtrials.thisN,Qtrials.thisIndex,text.started,text.stopped,prep_trigger.keys,prep_trigger.rt,prep_trigger.started,prep_trigger.stopped,waiting.started,waiting.stopped,trigger.keys,trigger.rt,trigger.started,trigger.stopped,image_3.started,image_3.stopped,trialNoQs.started,trialNoQs.stopped,vid1a.started,vid1a.stopped,vid1b.started,vid1b.stopped,vid2.started,vid2.stopped,vid3.started,vid3.stopped,vid4.started,vid4.stopped,vid5.started,vid5.stopped,ISI2.started,ISI2.stopped,vid1a_q.started,vid1a_q.stopped,vid1b_q.started,vid1b_q.stopped,vid2_q.started,vid2_q.stopped,l2q.started,l2q.stopped,vid3_q.started,vid3_q.stopped,l3q.started,l3q.stopped,vid4_q.started,vid4_q.stopped,vid5_q.started,vid5_q.stopped,key_resp_2.keys,key_resp_2.rt,key_resp_2.started,key_resp_2.stopped,key_resp_3.keys,key_resp_3.rt,key_resp_3.started,key_resp_3.stopped,ISI7.started,ISI7.stopped,nameQresp.keys,nameQresp.rt,nameQresp.started,nameQresp.stopped,nameQ1.started,nameQ1.stopped,nameQ2.started,nameQ2.stopped,eggPainting1.started,eggPainting1.stopped,eggPaintingQresp.keys,eggPaintingQresp.rt,eggPaintingQresp.started,eggPaintingQresp.stopped,eggPainting2.started,eggPainting2.stopped,character1.started,character1.stopped,character2.started,character2.stopped,Qcharacter.keys,Qcharacter.rt,Qcharacter.started,Qcharacter.stopped,themeQresp.keys,themeQresp.rt,themeQresp.started,themeQresp.stopped,themeQ1.started,themeQ1.stopped,themeQ2.started,themeQ2.stopped,gift1.started,gift1.stopped,gift2.started,gift2.stopped,giftQresp.keys,giftQresp.rt,giftQresp.started,giftQresp.stopped,northorsouth1.started,northorsouth1.stopped,northOrSouthQ.keys,northOrSouthQ.rt,northOrSouthQ.started,northOrSouthQ.stopped,northorsouth2.started,northorsouth2.stopped,session,participant,date,expName,psychopyVersion,frameRate,
,,,,,,,,,,,,,,,,,,,,,,,,,,,,,,,,,,8.448665804229677,None,g,0.28740375488996506,8.448665804229677,None,,,,,,,,,,,,,,,,,,,,,,,,,,,,,,,,,,,,,,,,,,,,,,,,,,,,,,,,,,,,,,,,,,,,,,,,,,,,,,,,,,,,,,,,,,,,,,,,,,,001,37,2020_Jan_13_1401,Block3,3.1.2,59.93419105939836,
,,,,,,,,,,,,,,,,,,,,,,,,,,,,,,,,,,,,,,,,8.748736962676048,None,equal,16.168613394722342,8.748736962676048,None,,,,,,,,,,,,,,,,,,,,,,,,,,,,,,,,,,,,,,,,,,,,,,,,,,,,,,,,,,,,,,,,,,,,,,,,,,,,,,,,,,,,,,,,,,,,,001,37,2020_Jan_13_1401,Block3,3.1.2,59.93419105939836,
videoBlock_schemaN_pathA_1.csv,north.png,stims/wedding-3.1a.mp4,stims/wedding-3.1b.mp4,stims/wedding-3.2a.mp4,stims/wedding-3.3a.mp4,stims/wedding-3.4a.mp4,stims/wedding-3.5.mp4,stimsday1details/egg3.png,stimsday1details/couple3.png,stimsday1details/new1.png,stimsday1details/newegg1.png,stimsday1details/newperson1.png,stimsday1details/gift3.png,stimsday1details/cn3.png,stimsday1details/t3.png,stimsday1details/n3.png,stimsday1details/ct3.png,0,0,0,0,0,0,0,0,0,0,0,0,,,,,,,,,,,,,,,,,24.952054885216057,None,None,None,None,None,None,None,None,None,None,None,None,None,None,None,,,,,,,,,,,,,,,,,,,,,,,,,,,,,,,,,,,,,,,,,,,,,,,,,,,,,,,,,,,,,,,,,,,,,,,,,,,,,001,37,2020_Jan_13_1401,Block3,3.1.2,59.93419105939836,
videoBlock_schemaN_pathA_1.csv,north.png,stims/wedding-3.1a.mp4,stims/wedding-3.1b.mp4,stims/wedding-3.2a.mp4,stims/wedding-3.3a.mp4,stims/wedding-3.4a.mp4,stims/wedding-3.5.mp4,stimsday1details/egg3.png,stimsday1details/couple3.png,stimsday1details/new1.png,stimsday1details/newegg1.png,stimsday1details/newperson1.png,stimsday1details/gift3.png,stimsday1details/cn3.png,stimsday1details/t3.png,stimsday1details/n3.png,stimsday1details/ct3.png,0,0,0,0,0,0,0,0,,,,,0,0,0,0,,,,,,,,,,,,,,,,,,,,,,,,,,,,,2.5284179793670774,None,37.21585637424141,51.69800542015582,51.69800542015582,None,60.69789629988372,None,77.69767740368843,81.69763612560928,81.69763612560928,104.69754531234503,104.69754531234503,108.69729537796229,108.69729537796229,None,132.69698819052428,None,['2'],[2.0190712874755263],76.69769802317023,81.69763612560928,['1'],[4.452372578904033],103.69746368378401,108.69729537796229,,,,,,,,,,,,,,,,,,,,,,,,,,,,,,,,,,,,,,,,,,,,,,,,,,,001,37,2020_Jan_13_1401,Block3,3.1.2,59.93419105939836,
videoBlock_schemaN_pathA_1.csv,north.png,stims/wedding-3.1a.mp4,stims/wedding-3.1b.mp4,stims/wedding-3.2a.mp4,stims/wedding-3.3a.mp4,stims/wedding-3.4a.mp4,stims/wedding-3.5.mp4,stimsday1details/egg3.png,stimsday1details/couple3.png,stimsday1details/new1.png,stimsday1details/newegg1.png,stimsday1details/newperson1.png,stimsday1details/gift3.png,stimsday1details/cn3.png,stimsday1details/t3.png,stimsday1details/n3.png,stimsday1details/ct3.png,0,0,0,0,0,0,0,0,,,,,,,,,,,,,,,,,,,,,,,,,,,,,,,,,,,,,,,,,,,,,,,,,,,,,,,,,,,,,,,2.52407044172287e-05,None,2,1.035151181742549,147.13017461355776,None,147.13017461355776,None,147.13017461355776,None,149.13029185123742,None,1,0.8854332091286778,149.13029185123742,None,149.13029185123742,None,151.1301048565656,None,151.1301048565656,None,1,0.7523001553490758,151.1301048565656,None,1,0.6858873022720218,153.13007148262113,None,153.13007148262113,None,153.13007148262113,None,155.13011225964874,None,155.13011225964874,None,2,1.1187002789229155,155.13011225964874,None,157.13022304419428,None,1,0.4334159828722477,157.13022304419428,None,157.13022304419428,None,001,37,2020_Jan_13_1401,Block3,3.1.2,59.93419105939836,
videoBlock_schemaN_pathA_2.csv,north.png,stims/wedding-5.1a.mp4,stims/wedding-5.1b.mp4,stims/wedding-5.2a.mp4,stims/wedding-5.3a.mp4,stims/wedding-5.4a.mp4,stims/wedding-5.5.mp4,stimsday1details/newegg2.png,stimsday1details/couple5.png,stimsday1details/gift5.png,stimsday1details/egg5.png,stimsday1details/newperson2.png,stimsday1details/new2.png,stimsday1details/cn5.png,stimsday1details/ct5.png,stimsday1details/n5.png,stimsday1details/t5.png,0,1,1,1,0,0,0,0,0,0,0,0,,,,,,,,,,,,,,,,,159.31351693719625,None,2.8463194090873003,None,169.16320493910462,183.31306914333254,183.32969790045172,192.31289938371629,192.32952688261867,209.3126267855987,209.32948840782046,232.3124135127291,232.3290830105543,256.3121149446815,256.3287817630917,None,,,,,,,,,,,,,,,,,,,,,,,,,,,,,,,,,,,,,,,,,,,,,,,,,,,,,,,,,,,,,,,,,,,,,,,,,,,,,001,37,2020_Jan_13_1401,Block3,3.1.2,59.93419105939836,
videoBlock_schemaN_pathA_2.csv,north.png,stims/wedding-5.1a.mp4,stims/wedding-5.1b.mp4,stims/wedding-5.2a.mp4,stims/wedding-5.3a.mp4,stims/wedding-5.4a.mp4,stims/wedding-5.5.mp4,stimsday1details/newegg2.png,stimsday1details/couple5.png,stimsday1details/gift5.png,stimsday1details/egg5.png,stimsday1details/newperson2.png,stimsday1details/new2.png,stimsday1details/cn5.png,stimsday1details/ct5.png,stimsday1details/n5.png,stimsday1details/t5.png,0,1,1,1,0,0,0,0,,,,,0,0,0,0,,,,,,,,,,,,,,,,,,,,,,,,,,,,,None,None,None,None,None,None,None,None,None,None,None,None,None,None,None,None,None,None,None,,None,None,None,,None,None,,,,,,,,,,,,,,,,,,,,,,,,,,,,,,,,,,,,,,,,,,,,,,,,,,,001,37,2020_Jan_13_1401,Block3,3.1.2,59.93419105939836,
videoBlock_schemaN_pathA_2.csv,north.png,stims/wedding-5.1a.mp4,stims/wedding-5.1b.mp4,stims/wedding-5.2a.mp4,stims/wedding-5.3a.mp4,stims/wedding-5.4a.mp4,stims/wedding-5.5.mp4,stimsday1details/newegg2.png,stimsday1details/couple5.png,stimsday1details/gift5.png,stimsday1details/egg5.png,stimsday1details/newperson2.png,stimsday1details/new2.png,stimsday1details/cn5.png,stimsday1details/ct5.png,stimsday1details/n5.png,stimsday1details/t5.png,0,1,1,1,0,0,0,0,,,,,,,,,,,,,,,,,,,,,,,,,,,,,,,,,,,,,,,,,,,,,,,,,,,,,,,,,,,,,,,3.2349489629268646e-05,None,2,1.2178539587184787,274.24604269396514,None,274.24604269396514,None,274.24604269396514,None,276.228534238413,None,2,0.8686347659677267,276.228534238413,None,276.228534238413,None,278.2286612614989,None,278.2286612614989,None,1,0.9020029297098517,278.2286612614989,None,2,1.13558853790164,280.2284813784063,None,280.2284813784063,None,280.2284813784063,None,282.22840086650103,None,282.22840086650103,None,1,0.5528496140614152,282.22840086650103,None,284.2286060201004,None,1,0.43522854428738356,284.2286060201004,None,284.2286060201004,None,001,37,2020_Jan_13_1401,Block3,3.1.2,59.93419105939836,
videoBlock_schemaN_pathB_1.csv,north.png,stims/wedding-4.1a.mp4,stims/wedding-4.1b.mp4,stims/wedding-4.2b.mp4,stims/wedding-4.3b.mp4,stims/wedding-4.4b.mp4,stims/wedding-4.5.mp4,stimsday1details/newpainting1.png,stimsday1details/newperson13.png,stimsday1details/gift4.png,stimsday1details/painting4.png,stimsday1details/couple4.png,stimsday1details/new13.png,stimsday1details/n4.png,stimsday1details/ct4.png,stimsday1details/cn4.png,stimsday1details/t4.png,0,2,2,3,0,0,0,0,0,0,0,0,,,,,,,,,,,,,,,,,286.445139975287,None,2.7798505388200283,None,296.22837994620204,310.44495899695903,310.4615699062124,None,319.4614854492247,None,336.46103566419333,359.4440972581506,359.4608316756785,None,383.4606999801472,None,,,,,,,,,,,,,,,,,,,,,,,,,,,,,,,,,,,,,,,,,,,,,,,,,,,,,,,,,,,,,,,,,,,,,,,,,,,,,001,37,2020_Jan_13_1401,Block3,3.1.2,59.93419105939836,
videoBlock_schemaN_pathB_1.csv,north.png,stims/wedding-4.1a.mp4,stims/wedding-4.1b.mp4,stims/wedding-4.2b.mp4,stims/wedding-4.3b.mp4,stims/wedding-4.4b.mp4,stims/wedding-4.5.mp4,stimsday1details/newpainting1.png,stimsday1details/newperson13.png,stimsday1details/gift4.png,stimsday1details/painting4.png,stimsday1details/couple4.png,stimsday1details/new13.png,stimsday1details/n4.png,stimsday1details/ct4.png,stimsday1details/cn4.png,stimsday1details/t4.png,0,2,2,3,0,0,0,0,,,,,0,0,0,0,,,,,,,,,,,,,,,,,,,,,,,,,,,,,None,None,None,None,None,None,None,None,None,None,None,None,None,None,None,None,None,None,None,,None,None,None,,None,None,,,,,,,,,,,,,,,,,,,,,,,,,,,,,,,,,,,,,,,,,,,,,,,,,,,001,37,2020_Jan_13_1401,Block3,3.1.2,59.93419105939836,
videoBlock_schemaN_pathB_1.csv,north.png,stims/wedding-4.1a.mp4,stims/wedding-4.1b.mp4,stims/wedding-4.2b.mp4,stims/wedding-4.3b.mp4,stims/wedding-4.4b.mp4,stims/wedding-4.5.mp4,stimsday1details/newpainting1.png,stimsday1details/newperson13.png,stimsday1details/gift4.png,stimsday1details/painting4.png,stimsday1details/couple4.png,stimsday1details/new13.png,stimsday1details/n4.png,stimsday1details/ct4.png,stimsday1details/cn4.png,stimsday1details/t4.png,0,2,2,3,0,0,0,0,,,,,,,,,,,,,,,,,,,,,,,,,,,,,,,,,,,,,,,,,,,,,,,,,,,,,,,,,,,,,,,3.610923886299133e-05,None,1,0.8852486256510019,401.01036107633263,None,401.01036107633263,None,401.01036107633263,None,403.010277655907,None,2,1.4349767211824656,403.010277655907,None,403.010277655907,None,405.0102461697534,None,405.0102461697534,None,2,0.9024316435679793,405.0102461697534,None,2,1.0183783238753676,407.01042746473104,None,407.01042746473104,None,407.01042746473104,None,409.01031221356243,None,409.01031221356243,None,1,0.501974118873477,409.01031221356243,None,411.0101691763848,None,1,0.5520989000797272,411.0101691763848,None,411.0101691763848,None,001,37,2020_Jan_13_1401,Block3,3.1.2,59.93419105939836,
videoBlock_schemaN_pathB_2.csv,north.png,stims/wedding-8.1a.mp4,stims/wedding-8.1b.mp4,stims/wedding-8.2b.mp4,stims/wedding-8.3b.mp4,stims/wedding-8.4b.mp4,stims/wedding-8.5.mp4,stimsday1details/newpainting2.png,stimsday1details/newperson14.png,stimsday1details/new14.png,stimsday1details/painting8.png,stimsday1details/couple8.png,stimsday1details/gift8.png,stimsday1details/n8.png,stimsday1details/t8.png,stimsday1details/cn8.png,stimsday1details/ct8.png,0,3,3,4,0,0,0,0,0,0,0,0,,,,,,,,,,,,,,,,,413.2601484814659,None,2.759999562986195,None,423.0102896168828,437.2600626759231,437.27651596814394,446.25969270057976,446.27640196774155,None,463.2763461275026,None,486.2760502519086,None,510.2755965581164,None,,,,,,,,,,,,,,,,,,,,,,,,,,,,,,,,,,,,,,,,,,,,,,,,,,,,,,,,,,,,,,,,,,,,,,,,,,,,,001,37,2020_Jan_13_1401,Block3,3.1.2,59.93419105939836,
videoBlock_schemaN_pathB_2.csv,north.png,stims/wedding-8.1a.mp4,stims/wedding-8.1b.mp4,stims/wedding-8.2b.mp4,stims/wedding-8.3b.mp4,stims/wedding-8.4b.mp4,stims/wedding-8.5.mp4,stimsday1details/newpainting2.png,stimsday1details/newperson14.png,stimsday1details/new14.png,stimsday1details/painting8.png,stimsday1details/couple8.png,stimsday1details/gift8.png,stimsday1details/n8.png,stimsday1details/t8.png,stimsday1details/cn8.png,stimsday1details/ct8.png,0,3,3,4,0,0,0,0,,,,,0,0,0,0,,,,,,,,,,,,,,,,,,,,,,,,,,,,,None,None,None,None,None,None,None,None,None,None,None,None,None,None,None,None,None,None,None,,None,None,None,,None,None,,,,,,,,,,,,,,,,,,,,,,,,,,,,,,,,,,,,,,,,,,,,,,,,,,,001,37,2020_Jan_13_1401,Block3,3.1.2,59.93419105939836,
videoBlock_schemaN_pathB_2.csv,north.png,stims/wedding-8.1a.mp4,stims/wedding-8.1b.mp4,stims/wedding-8.2b.mp4,stims/wedding-8.3b.mp4,stims/wedding-8.4b.mp4,stims/wedding-8.5.mp4,stimsday1details/newpainting2.png,stimsday1details/newperson14.png,stimsday1details/new14.png,stimsday1details/painting8.png,stimsday1details/couple8.png,stimsday1details/gift8.png,stimsday1details/n8.png,stimsday1details/t8.png,stimsday1details/cn8.png,stimsday1details/ct8.png,0,3,3,4,0,0,0,0,,,,,,,,,,,,,,,,,,,,,,,,,,,,,,,,,,,,,,,,,,,,,,,,,,,,,,,,,,,,,,,7.824879139661789e-05,None,1,0.7190048042684793,527.6089665805921,None,527.6089665805921,None,527.6089665805921,None,529.6086804298684,None,2,1.0519408704712987,529.6086804298684,None,529.6086804298684,None,531.6088465545326,None,531.6088465545326,None,2,1.3019742229953408,531.6088465545326,None,1,0.8352831890806556,533.6087753046304,None,533.6087753046304,None,533.6087753046304,None,535.6087958933786,None,535.6087958933786,None,2,0.8351747961714864,535.6087958933786,None,537.6085386332124,None,1,0.6020969608798623,537.6085386332124,None,537.6085386332124,None,001,37,2020_Jan_13_1401,Block3,3.1.2,59.93419105939836,
videoBlock_schemaN_pathA_3.csv,north.png,stims/wedding-9.1a.mp4,stims/wedding-9.1b.mp4,stims/wedding-9.2a.mp4,stims/wedding-9.3a.mp4,stims/wedding-9.4a.mp4,stims/wedding-9.5.mp4,stimsday1details/newegg3.png,stimsday1details/newperson3.png,stimsday1details/gift9.png,stimsday1details/egg9.png,stimsday1details/couple9.png,stimsday1details/new3.png,stimsday1details/n9.png,stimsday1details/t9.png,stimsday1details/cn9.png,stimsday1details/ct9.png,0,4,4,2,0,0,0,0,0,0,0,0,,,,,,,,,,,,,,,,,539.8918815487996,None,2.8166034538298845,None,549.7090686317533,563.8916420554742,563.9082525363192,572.8914712127298,572.9080768991262,589.8912560418248,589.9079261664301,None,612.9076359793544,636.8906597057357,636.9073324874043,None,,,,,,,,,,,,,,,,,,,,,,,,,,,,,,,,,,,,,,,,,,,,,,,,,,,,,,,,,,,,,,,,,,,,,,,,,,,,,001,37,2020_Jan_13_1401,Block3,3.1.2,59.93419105939836,
videoBlock_schemaN_pathA_3.csv,north.png,stims/wedding-9.1a.mp4,stims/wedding-9.1b.mp4,stims/wedding-9.2a.mp4,stims/wedding-9.3a.mp4,stims/wedding-9.4a.mp4,stims/wedding-9.5.mp4,stimsday1details/newegg3.png,stimsday1details/newperson3.png,stimsday1details/gift9.png,stimsday1details/egg9.png,stimsday1details/couple9.png,stimsday1details/new3.png,stimsday1details/n9.png,stimsday1details/t9.png,stimsday1details/cn9.png,stimsday1details/ct9.png,0,4,4,2,0,0,0,0,,,,,0,0,0,0,,,,,,,,,,,,,,,,,,,,,,,,,,,,,None,None,None,None,None,None,None,None,None,None,None,None,None,None,None,None,None,None,None,,None,None,None,,None,None,,,,,,,,,,,,,,,,,,,,,,,,,,,,,,,,,,,,,,,,,,,,,,,,,,,001,37,2020_Jan_13_1401,Block3,3.1.2,59.93419105939836,
videoBlock_schemaN_pathA_3.csv,north.png,stims/wedding-9.1a.mp4,stims/wedding-9.1b.mp4,stims/wedding-9.2a.mp4,stims/wedding-9.3a.mp4,stims/wedding-9.4a.mp4,stims/wedding-9.5.mp4,stimsday1details/newegg3.png,stimsday1details/newperson3.png,stimsday1details/gift9.png,stimsday1details/egg9.png,stimsday1details/couple9.png,stimsday1details/new3.png,stimsday1details/n9.png,stimsday1details/t9.png,stimsday1details/cn9.png,stimsday1details/ct9.png,0,4,4,2,0,0,0,0,,,,,,,,,,,,,,,,,,,,,,,,,,,,,,,,,,,,,,,,,,,,,,,,,,,,,,,,,,,,,,,3.945082426071167e-05,None,1,0.7352613685652614,654.690446591936,None,654.690446591936,None,654.690446591936,None,656.6736877299845,None,2,0.7840744815766811,656.6736877299845,None,656.6736877299845,None,658.6737201837823,None,658.6737201837823,None,2,1.018906264565885,658.6737201837823,None,1,1.3352539269253612,660.6738841207698,None,660.6738841207698,None,660.6738841207698,None,662.6735873455182,None,662.6735873455182,None,1,1.3688765792176127,662.6735873455182,None,664.6738022305071,None,1,0.8519673878327012,664.6738022305071,None,664.6738022305071,None,001,37,2020_Jan_13_1401,Block3,3.1.2,59.93419105939836,
videoBlock_schemaN_pathB_3.csv,north.png,stims/wedding-11.1a.mp4,stims/wedding-11.1b.mp4,stims/wedding-11.2b.mp4,stims/wedding-11.3b.mp4,stims/wedding-11.4b.mp4,stims/wedding-11.5.mp4,stimsday1details/painting11.png,stimsday1details/couple11.png,stimsday1details/gift11.png,stimsday1details/newpainting3.png,stimsday1details/newperson15.png,stimsday1details/new15.png,stimsday1details/cn11.png,stimsday1details/ct11.png,stimsday1details/n11.png,stimsday1details/t11.png,0,5,5,5,0,0,0,0,0,0,0,0,,,,,,,,,,,,,,,,,666.9902825765312,None,None,None,None,None,None,None,None,None,None,None,None,None,None,None,,,,,,,,,,,,,,,,,,,,,,,,,,,,,,,,,,,,,,,,,,,,,,,,,,,,,,,,,,,,,,,,,,,,,,,,,,,,,001,37,2020_Jan_13_1401,Block3,3.1.2,59.93419105939836,
videoBlock_schemaN_pathB_3.csv,north.png,stims/wedding-11.1a.mp4,stims/wedding-11.1b.mp4,stims/wedding-11.2b.mp4,stims/wedding-11.3b.mp4,stims/wedding-11.4b.mp4,stims/wedding-11.5.mp4,stimsday1details/painting11.png,stimsday1details/couple11.png,stimsday1details/gift11.png,stimsday1details/newpainting3.png,stimsday1details/newperson15.png,stimsday1details/new15.png,stimsday1details/cn11.png,stimsday1details/ct11.png,stimsday1details/n11.png,stimsday1details/t11.png,0,5,5,5,0,0,0,0,,,,,0,0,0,0,,,,,,,,,,,,,,,,,,,,,,,,,,,,,2.770577048882842,None,679.8067918103188,694.0234876843169,694.0401329454035,None,703.0398336239159,None,720.0398226277903,724.0230896808207,724.0395689485595,747.0226080939174,747.0392927993089,751.0225602537394,751.039228701964,None,775.0389238251373,None,['2'],[3.269178849644959],719.0396356489509,724.0230896808207,['1'],[3.353585524484515],746.0396437859163,751.0225602537394,,,,,,,,,,,,,,,,,,,,,,,,,,,,,,,,,,,,,,,,,,,,,,,,,,,001,37,2020_Jan_13_1401,Block3,3.1.2,59.93419105939836,
videoBlock_schemaN_pathB_3.csv,north.png,stims/wedding-11.1a.mp4,stims/wedding-11.1b.mp4,stims/wedding-11.2b.mp4,stims/wedding-11.3b.mp4,stims/wedding-11.4b.mp4,stims/wedding-11.5.mp4,stimsday1details/painting11.png,stimsday1details/couple11.png,stimsday1details/gift11.png,stimsday1details/newpainting3.png,stimsday1details/newperson15.png,stimsday1details/new15.png,stimsday1details/cn11.png,stimsday1details/ct11.png,stimsday1details/n11.png,stimsday1details/t11.png,0,5,5,5,0,0,0,0,,,,,,,,,,,,,,,,,,,,,,,,,,,,,,,,,,,,,,,,,,,,,,,,,,,,,,,,,,,,,,,3.475882112979889e-05,None,2,1.1684844605624676,790.3056184705347,None,790.3056184705347,None,790.3056184705347,None,792.2887091692537,None,1,0.6503128604963422,792.2887091692537,None,792.2887091692537,None,794.2888815402985,None,794.2888815402985,None,1,1.0355408042669296,794.2888815402985,None,2,1.0521753197535872,796.288841006346,None,796.288841006346,None,796.288841006346,None,798.2886379417032,None,798.2886379417032,None,1,0.7853180607780814,798.2886379417032,None,800.2887951163575,None,1,0.4852531412616372,800.2887951163575,None,800.2887951163575,None,001,37,2020_Jan_13_1401,Block3,3.1.2,59.93419105939836,
