northOrSouth,stimFile1a,stimFile1b,stimFile2,stimFile3,stimFile4,stimFile5,Qeggpainting1,Qeggpainting2,Qcharacter1,Qcharacter2,Qgift1,Qgift2,Qname1,Qname2,Qtheme1,Qtheme2,trials.thisRepN,trials.thisTrialN,trials.thisN,trials.thisIndex,South.thisRepN,South.thisTrialN,South.thisN,South.thisIndex,North.thisRepN,North.thisTrialN,North.thisN,North.thisIndex,noQtrials.thisRepN,noQtrials.thisTrialN,noQtrials.thisN,noQtrials.thisIndex,Qtrials.thisRepN,Qtrials.thisTrialN,Qtrials.thisN,Qtrials.thisIndex,text.started,text.stopped,prep_trigger.keys,prep_trigger.rt,prep_trigger.started,prep_trigger.stopped,waiting.started,waiting.stopped,trigger.keys,trigger.rt,trigger.started,trigger.stopped,southCueImage.started,southCueImage.stopped,northCueImage.started,northCueImage.stopped,trialNoQs.started,trialNoQs.stopped,vid1a.started,vid1a.stopped,vid1b.started,vid1b.stopped,vid2.started,vid2.stopped,vid3.started,vid3.stopped,vid4.started,vid4.stopped,vid5.started,vid5.stopped,ISI2.started,ISI2.stopped,vid1a_q.started,vid1a_q.stopped,vid1b_q.started,vid1b_q.stopped,vid2_q.started,vid2_q.stopped,l2q.started,l2q.stopped,vid3_q.started,vid3_q.stopped,l3q.started,l3q.stopped,vid4_q.started,vid4_q.stopped,vid5_q.started,vid5_q.stopped,key_resp_2.keys,key_resp_2.rt,key_resp_2.started,key_resp_2.stopped,key_resp_3.keys,key_resp_3.rt,key_resp_3.started,key_resp_3.stopped,ISI7.started,ISI7.stopped,nameQresp.keys,nameQresp.rt,nameQresp.started,nameQresp.stopped,nameQ1.started,nameQ1.stopped,nameQ2.started,nameQ2.stopped,eggPainting1.started,eggPainting1.stopped,eggPaintingQresp.keys,eggPaintingQresp.rt,eggPaintingQresp.started,eggPaintingQresp.stopped,eggPainting2.started,eggPainting2.stopped,character1.started,character1.stopped,character2.started,character2.stopped,Qcharacter.keys,Qcharacter.rt,Qcharacter.started,Qcharacter.stopped,themeQresp.keys,themeQresp.rt,themeQresp.started,themeQresp.stopped,themeQ1.started,themeQ1.stopped,themeQ2.started,themeQ2.stopped,gift1.started,gift1.stopped,gift2.started,gift2.stopped,giftQresp.keys,giftQresp.rt,giftQresp.started,giftQresp.stopped,northorsouth1.started,northorsouth1.stopped,northorsouth2.started,northorsouth2.stopped,northOrSouthQ.keys,northOrSouthQ.rt,northOrSouthQ.started,northOrSouthQ.stopped,session,participant,date,expName,psychopyVersion,frameRate,
,,,,,,,,,,,,,,,,,,,,,,,,,,,,,,,,,,,,,7.182724176906049,None,g,0.4375686338171363,7.182724176906049,None,,,,,,,,,,,,,,,,,,,,,,,,,,,,,,,,,,,,,,,,,,,,,,,,,,,,,,,,,,,,,,,,,,,,,,,,,,,,,,,,,,,,,,,,,,,,,,,,,,,,,001,13,2019_Aug_28_0951,viewing,3.1.2,59.99450890314117,
,,,,,,,,,,,,,,,,,,,,,,,,,,,,,,,,,,,,,,,,,,,7.632714770268649,None,equal,21.93541542813182,7.632714770268649,None,,,,,,,,,,,,,,,,,,,,,,,,,,,,,,,,,,,,,,,,,,,,,,,,,,,,,,,,,,,,,,,,,,,,,,,,,,,,,,,,,,,,,,,,,,,,,,,001,13,2019_Aug_28_0951,viewing,3.1.2,59.99450890314117,
south.png,stims/wedding-23.1a.mp4,stims/wedding-23.1b.mp4,stims/wedding-23.2b.mp4,stims/wedding-23.3a.mp4,stims/wedding-23.4b.mp4,stims/wedding-23.5.mp4,stimsday2details/painting23.png,stimsday2details/newpainting13.png,stimsday2details/newperson25.png,stimsday2details/couple23.png,stimsday2details/gift23.png,stimsday2details/new25.png,stimsday2details/n23.png,stimsday2details/cn23.png,stimsday2details/ct23.png,stimsday2details/t23.png,0,0,0,0,0,0,0,0,,,,,,,,,,,,,,,,,,,,,,,,,29.599122412037104,None,,,,,,,,,,,,,,,,,,,,,,,,,,,,,,,,,,,,,,,,,,,,,,,,,,,,,,,,,,,,,,,,,,,,,,,,,,,,,,,,,,,,,,,,,,,,,001,13,2019_Aug_28_0951,viewing,3.1.2,59.99450890314117,
south.png,stims/wedding-23.1a.mp4,stims/wedding-23.1b.mp4,stims/wedding-23.2b.mp4,stims/wedding-23.3a.mp4,stims/wedding-23.4b.mp4,stims/wedding-23.5.mp4,stimsday2details/painting23.png,stimsday2details/newpainting13.png,stimsday2details/newperson25.png,stimsday2details/couple23.png,stimsday2details/gift23.png,stimsday2details/new25.png,stimsday2details/n23.png,stimsday2details/cn23.png,stimsday2details/ct23.png,stimsday2details/t23.png,0,0,0,0,,,,,0,0,0,0,,,,,,,,,,,,,,,,,,,,,,,None,None,,,,,,,,,,,,,,,,,,,,,,,,,,,,,,,,,,,,,,,,,,,,,,,,,,,,,,,,,,,,,,,,,,,,,,,,,,,,,,,,,,,,,,,,,,,001,13,2019_Aug_28_0951,viewing,3.1.2,59.99450890314117,
south.png,stims/wedding-23.1a.mp4,stims/wedding-23.1b.mp4,stims/wedding-23.2b.mp4,stims/wedding-23.3a.mp4,stims/wedding-23.4b.mp4,stims/wedding-23.5.mp4,stimsday2details/painting23.png,stimsday2details/newpainting13.png,stimsday2details/newperson25.png,stimsday2details/couple23.png,stimsday2details/gift23.png,stimsday2details/new25.png,stimsday2details/n23.png,stimsday2details/cn23.png,stimsday2details/ct23.png,stimsday2details/t23.png,0,0,0,0,,,,,,,,,0,0,0,0,,,,,,,,,,,,,,,,,,,,,None,None,None,None,None,None,None,None,None,None,None,None,None,None,,,,,,,,,,,,,,,,,,,,,,,,,,,,,,,,,,,,,,,,,,,,,,,,,,,,,,,,,,,,,,,,,,,,,,,,,,,,,001,13,2019_Aug_28_0951,viewing,3.1.2,59.99450890314117,
south.png,stims/wedding-23.1a.mp4,stims/wedding-23.1b.mp4,stims/wedding-23.2b.mp4,stims/wedding-23.3a.mp4,stims/wedding-23.4b.mp4,stims/wedding-23.5.mp4,stimsday2details/painting23.png,stimsday2details/newpainting13.png,stimsday2details/newperson25.png,stimsday2details/couple23.png,stimsday2details/gift23.png,stimsday2details/new25.png,stimsday2details/n23.png,stimsday2details/cn23.png,stimsday2details/ct23.png,stimsday2details/t23.png,0,0,0,0,,,,,,,,,,,,,0,0,0,0,,,,,,,,,,,,,,,,,,,,,,,,,,,,,,,2.833687612786889,None,42.649065054021776,67.8153136530891,67.83197517320514,None,76.83185714902356,None,93.8316137441434,97.81492707505822,97.83156657125801,120.81459723692387,120.83127266913652,124.81450898200274,124.83118035411462,None,148.8309023771435,None,"['2', '1']","[2.6860149120911956, 3.6023166701197624]",92.83161959424615,97.81492707505822,['2'],[2.8520971350371838],119.83128816820681,124.81450898200274,,,,,,,,,,,,,,,,,,,,,,,,,,,,,,,,,,,,,,,,,,,,,,,,,,,001,13,2019_Aug_28_0951,viewing,3.1.2,59.99450890314117,
south.png,stims/wedding-23.1a.mp4,stims/wedding-23.1b.mp4,stims/wedding-23.2b.mp4,stims/wedding-23.3a.mp4,stims/wedding-23.4b.mp4,stims/wedding-23.5.mp4,stimsday2details/painting23.png,stimsday2details/newpainting13.png,stimsday2details/newperson25.png,stimsday2details/couple23.png,stimsday2details/gift23.png,stimsday2details/new25.png,stimsday2details/n23.png,stimsday2details/cn23.png,stimsday2details/ct23.png,stimsday2details/t23.png,0,0,0,0,,,,,,,,,,,,,,,,,,,,,,,,,,,,,,,,,,,,,,,,,,,,,,,,,,,,,,,,,,,,,,,,,,,,,,,,,1.978175714612007e-05,None,1,1.2523014079779387,169.94734084326774,None,169.94734084326774,None,169.94734084326774,None,171.94731211895123,None,1,0.7190709109418094,171.94731211895123,None,171.94731211895123,None,173.94728200603276,None,173.94728200603276,None,2,1.1022560009732842,173.94728200603276,None,2,1.166920391842723,175.94725253712386,None,175.94725253712386,None,175.94725253712386,None,177.9472070983611,None,177.9472070983611,None,1,0.6357384729199111,177.9472070983611,None,179.94718206999823,None,179.94718206999823,None,2,0.9025409040041268,179.94718206999823,None,001,13,2019_Aug_28_0951,viewing,3.1.2,59.99450890314117,
north.png,stims/wedding-38.1a.mp4,stims/wedding-38.1b.mp4,stims/wedding-38.2a.mp4,stims/wedding-38.3a.mp4,stims/wedding-38.4a.mp4,stims/wedding-38.5.mp4,stimsday2details/egg38.png,stimsday2details/newegg13.png,stimsday2details/couple38.png,stimsday2details/newperson26.png,stimsday2details/gift38.png,stimsday2details/new26.png,stimsday2details/cn38.png,stimsday2details/n38.png,stimsday2details/ct38.png,stimsday2details/t38.png,0,1,1,1,0,0,0,0,,,,,,,,,,,,,,,,,,,,,,,,,None,None,,,,,,,,,,,,,,,,,,,,,,,,,,,,,,,,,,,,,,,,,,,,,,,,,,,,,,,,,,,,,,,,,,,,,,,,,,,,,,,,,,,,,,,,,,,,,001,13,2019_Aug_28_0951,viewing,3.1.2,59.99450890314117,
north.png,stims/wedding-38.1a.mp4,stims/wedding-38.1b.mp4,stims/wedding-38.2a.mp4,stims/wedding-38.3a.mp4,stims/wedding-38.4a.mp4,stims/wedding-38.5.mp4,stimsday2details/egg38.png,stimsday2details/newegg13.png,stimsday2details/couple38.png,stimsday2details/newperson26.png,stimsday2details/gift38.png,stimsday2details/new26.png,stimsday2details/cn38.png,stimsday2details/n38.png,stimsday2details/ct38.png,stimsday2details/t38.png,0,1,1,1,,,,,0,0,0,0,,,,,,,,,,,,,,,,,,,,,,,181.997139565181,None,,,,,,,,,,,,,,,,,,,,,,,,,,,,,,,,,,,,,,,,,,,,,,,,,,,,,,,,,,,,,,,,,,,,,,,,,,,,,,,,,,,,,,,,,,,001,13,2019_Aug_28_0951,viewing,3.1.2,59.99450890314117,
north.png,stims/wedding-38.1a.mp4,stims/wedding-38.1b.mp4,stims/wedding-38.2a.mp4,stims/wedding-38.3a.mp4,stims/wedding-38.4a.mp4,stims/wedding-38.5.mp4,stimsday2details/egg38.png,stimsday2details/newegg13.png,stimsday2details/couple38.png,stimsday2details/newperson26.png,stimsday2details/gift38.png,stimsday2details/new26.png,stimsday2details/cn38.png,stimsday2details/n38.png,stimsday2details/ct38.png,stimsday2details/t38.png,0,1,1,1,,,,,,,,,0,0,0,0,,,,,,,,,,,,,,,,,,,,,3.0827302169054747,None,192.1304150260985,217.04671281203628,217.0634025069885,None,226.06327832629904,243.046382131055,243.06302222516388,266.04606023197994,266.0627393000759,None,290.0624606660567,None,,,,,,,,,,,,,,,,,,,,,,,,,,,,,,,,,,,,,,,,,,,,,,,,,,,,,,,,,,,,,,,,,,,,,,,,,,,,,001,13,2019_Aug_28_0951,viewing,3.1.2,59.99450890314117,
north.png,stims/wedding-38.1a.mp4,stims/wedding-38.1b.mp4,stims/wedding-38.2a.mp4,stims/wedding-38.3a.mp4,stims/wedding-38.4a.mp4,stims/wedding-38.5.mp4,stimsday2details/egg38.png,stimsday2details/newegg13.png,stimsday2details/couple38.png,stimsday2details/newperson26.png,stimsday2details/gift38.png,stimsday2details/new26.png,stimsday2details/cn38.png,stimsday2details/n38.png,stimsday2details/ct38.png,stimsday2details/t38.png,0,1,1,1,,,,,,,,,,,,,0,0,0,0,,,,,,,,,,,,,,,,,,,,,,,,,,,,,,,None,None,None,None,None,None,None,None,None,None,None,None,None,None,None,None,None,None,None,,None,None,None,,None,None,,,,,,,,,,,,,,,,,,,,,,,,,,,,,,,,,,,,,,,,,,,,,,,,,,,001,13,2019_Aug_28_0951,viewing,3.1.2,59.99450890314117,
north.png,stims/wedding-38.1a.mp4,stims/wedding-38.1b.mp4,stims/wedding-38.2a.mp4,stims/wedding-38.3a.mp4,stims/wedding-38.4a.mp4,stims/wedding-38.5.mp4,stimsday2details/egg38.png,stimsday2details/newegg13.png,stimsday2details/couple38.png,stimsday2details/newperson26.png,stimsday2details/gift38.png,stimsday2details/new26.png,stimsday2details/cn38.png,stimsday2details/n38.png,stimsday2details/ct38.png,stimsday2details/t38.png,0,1,1,1,,,,,,,,,,,,,,,,,,,,,,,,,,,,,,,,,,,,,,,,,,,,,,,,,,,,,,,,,,,,,,,,,,,,,,,,,2.941116690635681e-05,None,2,1.1689155367203057,313.81214751536027,None,313.81214751536027,None,313.81214751536027,None,315.7953937682323,None,1,0.6359399813227355,315.7953937682323,None,315.7953937682323,None,317.7954618711956,None,317.7954618711956,None,1,0.7024374776519835,317.7954618711956,None,2,1.035492347087711,319.7954296581447,None,319.7954296581447,None,319.7954296581447,None,321.7953316932544,None,321.7953316932544,None,1,0.6522883758880198,321.7953316932544,None,323.79534325702116,None,323.79534325702116,None,1,0.9522355957888067,323.79534325702116,None,001,13,2019_Aug_28_0951,viewing,3.1.2,59.99450890314117,
north.png,stims/wedding-34.1a.mp4,stims/wedding-34.1b.mp4,stims/wedding-34.2b.mp4,stims/wedding-34.3b.mp4,stims/wedding-34.4b.mp4,stims/wedding-34.5.mp4,stimsday2details/painting34.png,stimsday2details/newpainting14.png,stimsday2details/newperson27.png,stimsday2details/couple34.png,stimsday2details/gift34.png,stimsday2details/new27.png,stimsday2details/cn34.png,stimsday2details/n34.png,stimsday2details/ct34.png,stimsday2details/t34.png,0,2,2,2,0,0,0,0,,,,,,,,,,,,,,,,,,,,,,,,,None,None,,,,,,,,,,,,,,,,,,,,,,,,,,,,,,,,,,,,,,,,,,,,,,,,,,,,,,,,,,,,,,,,,,,,,,,,,,,,,,,,,,,,,,,,,,,,,001,13,2019_Aug_28_0951,viewing,3.1.2,59.99450890314117,
north.png,stims/wedding-34.1a.mp4,stims/wedding-34.1b.mp4,stims/wedding-34.2b.mp4,stims/wedding-34.3b.mp4,stims/wedding-34.4b.mp4,stims/wedding-34.5.mp4,stimsday2details/painting34.png,stimsday2details/newpainting14.png,stimsday2details/newperson27.png,stimsday2details/couple34.png,stimsday2details/gift34.png,stimsday2details/new27.png,stimsday2details/cn34.png,stimsday2details/n34.png,stimsday2details/ct34.png,stimsday2details/t34.png,0,2,2,2,,,,,0,0,0,0,,,,,,,,,,,,,,,,,,,,,,,325.8619432603009,None,,,,,,,,,,,,,,,,,,,,,,,,,,,,,,,,,,,,,,,,,,,,,,,,,,,,,,,,,,,,,,,,,,,,,,,,,,,,,,,,,,,,,,,,,,,001,13,2019_Aug_28_0951,viewing,3.1.2,59.99450890314117,
north.png,stims/wedding-34.1a.mp4,stims/wedding-34.1b.mp4,stims/wedding-34.2b.mp4,stims/wedding-34.3b.mp4,stims/wedding-34.4b.mp4,stims/wedding-34.5.mp4,stimsday2details/painting34.png,stimsday2details/newpainting14.png,stimsday2details/newperson27.png,stimsday2details/couple34.png,stimsday2details/gift34.png,stimsday2details/new27.png,stimsday2details/cn34.png,stimsday2details/n34.png,stimsday2details/ct34.png,stimsday2details/t34.png,0,2,2,2,,,,,,,,,0,0,0,0,,,,,,,,,,,,,,,,,,,,,3.0696400171145797,None,336.01187554420903,360.9281386542134,360.9448143001646,369.92804167512804,369.9447765890509,None,386.9444792782888,409.9442557580769,409.9442557580769,None,433.94395049102604,None,,,,,,,,,,,,,,,,,,,,,,,,,,,,,,,,,,,,,,,,,,,,,,,,,,,,,,,,,,,,,,,,,,,,,,,,,,,,,001,13,2019_Aug_28_0951,viewing,3.1.2,59.99450890314117,
north.png,stims/wedding-34.1a.mp4,stims/wedding-34.1b.mp4,stims/wedding-34.2b.mp4,stims/wedding-34.3b.mp4,stims/wedding-34.4b.mp4,stims/wedding-34.5.mp4,stimsday2details/painting34.png,stimsday2details/newpainting14.png,stimsday2details/newperson27.png,stimsday2details/couple34.png,stimsday2details/gift34.png,stimsday2details/new27.png,stimsday2details/cn34.png,stimsday2details/n34.png,stimsday2details/ct34.png,stimsday2details/t34.png,0,2,2,2,,,,,,,,,,,,,0,0,0,0,,,,,,,,,,,,,,,,,,,,,,,,,,,,,,,None,None,None,None,None,None,None,None,None,None,None,None,None,None,None,None,None,None,None,,None,None,None,,None,None,,,,,,,,,,,,,,,,,,,,,,,,,,,,,,,,,,,,,,,,,,,,,,,,,,,001,13,2019_Aug_28_0951,viewing,3.1.2,59.99450890314117,
north.png,stims/wedding-34.1a.mp4,stims/wedding-34.1b.mp4,stims/wedding-34.2b.mp4,stims/wedding-34.3b.mp4,stims/wedding-34.4b.mp4,stims/wedding-34.5.mp4,stimsday2details/painting34.png,stimsday2details/newpainting14.png,stimsday2details/newperson27.png,stimsday2details/couple34.png,stimsday2details/gift34.png,stimsday2details/new27.png,stimsday2details/cn34.png,stimsday2details/n34.png,stimsday2details/ct34.png,stimsday2details/t34.png,0,2,2,2,,,,,,,,,,,,,,,,,,,,,,,,,,,,,,,,,,,,,,,,,,,,,,,,,,,,,,,,,,,,,,,,,,,,,,,,,3.932975232601166e-05,None,2,1.050767034292221,457.49686251813546,None,457.49686251813546,None,457.49686251813546,None,459.4769858829677,None,1,0.7354312767274678,459.4769858829677,None,459.4769858829677,None,461.4769171802327,None,461.4769171802327,None,2,1.118976216763258,461.4769171802327,None,2,1.0708529008552432,463.476881837938,None,463.476881837938,None,463.476881837938,None,465.47687874315307,None,465.47687874315307,None,1,0.7522523440420628,465.47687874315307,None,467.4768133102916,None,467.4768133102916,None,1,1.002537603955716,467.4768133102916,None,001,13,2019_Aug_28_0951,viewing,3.1.2,59.99450890314117,
south.png,stims/wedding-19.1a.mp4,stims/wedding-19.1b.mp4,stims/wedding-19.2a.mp4,stims/wedding-19.3b.mp4,stims/wedding-19.4a.mp4,stims/wedding-19.5.mp4,stimsday2details/egg19.png,stimsday2details/newegg14.png,stimsday2details/newperson28.png,stimsday2details/couple19.png,stimsday2details/new28.png,stimsday2details/gift19.png,stimsday2details/n19.png,stimsday2details/cn19.png,stimsday2details/ct19.png,stimsday2details/t19.png,0,3,3,3,0,0,0,0,,,,,,,,,,,,,,,,,,,,,,,,,469.4768163841218,None,,,,,,,,,,,,,,,,,,,,,,,,,,,,,,,,,,,,,,,,,,,,,,,,,,,,,,,,,,,,,,,,,,,,,,,,,,,,,,,,,,,,,,,,,,,,,001,13,2019_Aug_28_0951,viewing,3.1.2,59.99450890314117,
south.png,stims/wedding-19.1a.mp4,stims/wedding-19.1b.mp4,stims/wedding-19.2a.mp4,stims/wedding-19.3b.mp4,stims/wedding-19.4a.mp4,stims/wedding-19.5.mp4,stimsday2details/egg19.png,stimsday2details/newegg14.png,stimsday2details/newperson28.png,stimsday2details/couple19.png,stimsday2details/new28.png,stimsday2details/gift19.png,stimsday2details/n19.png,stimsday2details/cn19.png,stimsday2details/ct19.png,stimsday2details/t19.png,0,3,3,3,,,,,0,0,0,0,,,,,,,,,,,,,,,,,,,,,,,None,None,,,,,,,,,,,,,,,,,,,,,,,,,,,,,,,,,,,,,,,,,,,,,,,,,,,,,,,,,,,,,,,,,,,,,,,,,,,,,,,,,,,,,,,,,,,001,13,2019_Aug_28_0951,viewing,3.1.2,59.99450890314117,
south.png,stims/wedding-19.1a.mp4,stims/wedding-19.1b.mp4,stims/wedding-19.2a.mp4,stims/wedding-19.3b.mp4,stims/wedding-19.4a.mp4,stims/wedding-19.5.mp4,stimsday2details/egg19.png,stimsday2details/newegg14.png,stimsday2details/newperson28.png,stimsday2details/couple19.png,stimsday2details/new28.png,stimsday2details/gift19.png,stimsday2details/n19.png,stimsday2details/cn19.png,stimsday2details/ct19.png,stimsday2details/t19.png,0,3,3,3,,,,,,,,,0,0,0,0,,,,,,,,,,,,,,,,,,,,,3.2140765571966767,None,479.8784632952884,504.6597095592879,504.6763103730045,None,513.6762295952067,530.659349589143,530.6760045839474,553.6590562411584,553.6757138990797,None,577.6754294619896,None,,,,,,,,,,,,,,,,,,,,,,,,,,,,,,,,,,,,,,,,,,,,,,,,,,,,,,,,,,,,,,,,,,,,,,,,,,,,,001,13,2019_Aug_28_0951,viewing,3.1.2,59.99450890314117,
south.png,stims/wedding-19.1a.mp4,stims/wedding-19.1b.mp4,stims/wedding-19.2a.mp4,stims/wedding-19.3b.mp4,stims/wedding-19.4a.mp4,stims/wedding-19.5.mp4,stimsday2details/egg19.png,stimsday2details/newegg14.png,stimsday2details/newperson28.png,stimsday2details/couple19.png,stimsday2details/new28.png,stimsday2details/gift19.png,stimsday2details/n19.png,stimsday2details/cn19.png,stimsday2details/ct19.png,stimsday2details/t19.png,0,3,3,3,,,,,,,,,,,,,0,0,0,0,,,,,,,,,,,,,,,,,,,,,,,,,,,,,,,None,None,None,None,None,None,None,None,None,None,None,None,None,None,None,None,None,None,None,,None,None,None,,None,None,,,,,,,,,,,,,,,,,,,,,,,,,,,,,,,,,,,,,,,,,,,,,,,,,,,001,13,2019_Aug_28_0951,viewing,3.1.2,59.99450890314117,
south.png,stims/wedding-19.1a.mp4,stims/wedding-19.1b.mp4,stims/wedding-19.2a.mp4,stims/wedding-19.3b.mp4,stims/wedding-19.4a.mp4,stims/wedding-19.5.mp4,stimsday2details/egg19.png,stimsday2details/newegg14.png,stimsday2details/newperson28.png,stimsday2details/couple19.png,stimsday2details/new28.png,stimsday2details/gift19.png,stimsday2details/n19.png,stimsday2details/cn19.png,stimsday2details/ct19.png,stimsday2details/t19.png,0,3,3,3,,,,,,,,,,,,,,,,,,,,,,,,,,,,,,,,,,,,,,,,,,,,,,,,,,,,,,,,,,,,,,,,,,,,,,,,,4.696939140558243e-05,None,1,1.0976088400930166,602.0630604871549,None,602.0630604871549,None,602.0630604871549,None,604.0417115520686,None,1,0.6524247429333627,604.0417115520686,None,604.0417115520686,None,606.0417323173024,None,606.0417323173024,None,2,1.0354092479683459,606.0417323173024,None,2,1.269055220298469,608.0417175819166,None,608.0417175819166,None,608.0417175819166,None,610.0416835490614,None,610.0416835490614,None,2,1.0691992603242397,610.0416835490614,None,612.0416808882728,None,612.0416808882728,None,2,1.185528731904924,612.0416808882728,None,001,13,2019_Aug_28_0951,viewing,3.1.2,59.99450890314117,
south.png,stims/wedding-1.1a.mp4,stims/wedding-1.1b.mp4,stims/wedding-1.2b.mp4,stims/wedding-1.3a.mp4,stims/wedding-1.4b.mp4,stims/wedding-1.5.mp4,stimsday2details/newpainting15.png,stimsday2details/painting1.png,stimsday2details/newperson29.png,stimsday2details/couple1.png,stimsday2details/gift1.png,stimsday2details/new29.png,stimsday2details/n1.png,stimsday2details/cn1.png,stimsday2details/ct1.png,stimsday2details/t1.png,0,4,4,4,0,0,0,0,,,,,,,,,,,,,,,,,,,,,,,,,614.0416397671215,None,,,,,,,,,,,,,,,,,,,,,,,,,,,,,,,,,,,,,,,,,,,,,,,,,,,,,,,,,,,,,,,,,,,,,,,,,,,,,,,,,,,,,,,,,,,,,001,13,2019_Aug_28_0951,viewing,3.1.2,59.99450890314117,
south.png,stims/wedding-1.1a.mp4,stims/wedding-1.1b.mp4,stims/wedding-1.2b.mp4,stims/wedding-1.3a.mp4,stims/wedding-1.4b.mp4,stims/wedding-1.5.mp4,stimsday2details/newpainting15.png,stimsday2details/painting1.png,stimsday2details/newperson29.png,stimsday2details/couple1.png,stimsday2details/gift1.png,stimsday2details/new29.png,stimsday2details/n1.png,stimsday2details/cn1.png,stimsday2details/ct1.png,stimsday2details/t1.png,0,4,4,4,,,,,0,0,0,0,,,,,,,,,,,,,,,,,,,,,,,None,None,,,,,,,,,,,,,,,,,,,,,,,,,,,,,,,,,,,,,,,,,,,,,,,,,,,,,,,,,,,,,,,,,,,,,,,,,,,,,,,,,,,,,,,,,,,001,13,2019_Aug_28_0951,viewing,3.1.2,59.99450890314117,
south.png,stims/wedding-1.1a.mp4,stims/wedding-1.1b.mp4,stims/wedding-1.2b.mp4,stims/wedding-1.3a.mp4,stims/wedding-1.4b.mp4,stims/wedding-1.5.mp4,stimsday2details/newpainting15.png,stimsday2details/painting1.png,stimsday2details/newperson29.png,stimsday2details/couple1.png,stimsday2details/gift1.png,stimsday2details/new29.png,stimsday2details/n1.png,stimsday2details/cn1.png,stimsday2details/ct1.png,stimsday2details/t1.png,0,4,4,4,,,,,,,,,0,0,0,0,,,,,,,,,,,,,,,,,,,,,3.0738105340860784,None,624.3415564289317,649.2746694372036,649.2911818199791,None,658.2910627219826,None,675.2907842271961,698.2738625952043,698.2905480079353,722.2734904591925,722.2902501141652,None,,,,,,,,,,,,,,,,,,,,,,,,,,,,,,,,,,,,,,,,,,,,,,,,,,,,,,,,,,,,,,,,,,,,,,,,,,,,,001,13,2019_Aug_28_0951,viewing,3.1.2,59.99450890314117,
south.png,stims/wedding-1.1a.mp4,stims/wedding-1.1b.mp4,stims/wedding-1.2b.mp4,stims/wedding-1.3a.mp4,stims/wedding-1.4b.mp4,stims/wedding-1.5.mp4,stimsday2details/newpainting15.png,stimsday2details/painting1.png,stimsday2details/newperson29.png,stimsday2details/couple1.png,stimsday2details/gift1.png,stimsday2details/new29.png,stimsday2details/n1.png,stimsday2details/cn1.png,stimsday2details/ct1.png,stimsday2details/t1.png,0,4,4,4,,,,,,,,,,,,,0,0,0,0,,,,,,,,,,,,,,,,,,,,,,,,,,,,,,,None,None,None,None,None,None,None,None,None,None,None,None,None,None,None,None,None,None,None,,None,None,None,,None,None,,,,,,,,,,,,,,,,,,,,,,,,,,,,,,,,,,,,,,,,,,,,,,,,,,,001,13,2019_Aug_28_0951,viewing,3.1.2,59.99450890314117,
south.png,stims/wedding-1.1a.mp4,stims/wedding-1.1b.mp4,stims/wedding-1.2b.mp4,stims/wedding-1.3a.mp4,stims/wedding-1.4b.mp4,stims/wedding-1.5.mp4,stimsday2details/newpainting15.png,stimsday2details/painting1.png,stimsday2details/newperson29.png,stimsday2details/couple1.png,stimsday2details/gift1.png,stimsday2details/new29.png,stimsday2details/n1.png,stimsday2details/cn1.png,stimsday2details/ct1.png,stimsday2details/t1.png,0,4,4,4,,,,,,,,,,,,,,,,,,,,,,,,,,,,,,,,,,,,,,,,,,,,,,,,,,,,,,,,,,,,,,,,,,,,,,,,,4.6552158892154694e-05,None,1,0.9189771879464388,746.0899204919115,None,746.0899204919115,None,746.0899204919115,None,748.0898601459339,None,2,0.8692574729211628,748.0898601459339,None,748.0898601459339,None,750.0897985133342,None,750.0897985133342,None,2,0.9193495530635118,750.0897985133342,None,2,1.1355329565703869,752.0898561552167,None,752.0898561552167,None,752.0898561552167,None,754.0897440379485,None,754.0897440379485,None,1,0.9525949591770768,754.0897440379485,None,756.0897280923091,None,756.0897280923091,None,2,1.0353539320640266,756.0897280923091,None,001,13,2019_Aug_28_0951,viewing,3.1.2,59.99450890314117,
north.png,stims/wedding-29.1a.mp4,stims/wedding-29.1b.mp4,stims/wedding-29.2a.mp4,stims/wedding-29.3a.mp4,stims/wedding-29.4a.mp4,stims/wedding-29.5.mp4,stimsday2details/egg29.png,stimsday2details/newegg15.png,stimsday2details/newperson30.png,stimsday2details/couple29.png,stimsday2details/gift29.png,stimsday2details/new30.png,stimsday2details/n29.png,stimsday2details/cn29.png,stimsday2details/ct29.png,stimsday2details/t29.png,0,5,5,5,0,0,0,0,,,,,,,,,,,,,,,,,,,,,,,,,None,None,,,,,,,,,,,,,,,,,,,,,,,,,,,,,,,,,,,,,,,,,,,,,,,,,,,,,,,,,,,,,,,,,,,,,,,,,,,,,,,,,,,,,,,,,,,,,001,13,2019_Aug_28_0951,viewing,3.1.2,59.99450890314117,
north.png,stims/wedding-29.1a.mp4,stims/wedding-29.1b.mp4,stims/wedding-29.2a.mp4,stims/wedding-29.3a.mp4,stims/wedding-29.4a.mp4,stims/wedding-29.5.mp4,stimsday2details/egg29.png,stimsday2details/newegg15.png,stimsday2details/newperson30.png,stimsday2details/couple29.png,stimsday2details/gift29.png,stimsday2details/new30.png,stimsday2details/n29.png,stimsday2details/cn29.png,stimsday2details/ct29.png,stimsday2details/t29.png,0,5,5,5,,,,,0,0,0,0,,,,,,,,,,,,,,,,,,,,,,,758.2230386529118,None,,,,,,,,,,,,,,,,,,,,,,,,,,,,,,,,,,,,,,,,,,,,,,,,,,,,,,,,,,,,,,,,,,,,,,,,,,,,,,,,,,,,,,,,,,,001,13,2019_Aug_28_0951,viewing,3.1.2,59.99450890314117,
north.png,stims/wedding-29.1a.mp4,stims/wedding-29.1b.mp4,stims/wedding-29.2a.mp4,stims/wedding-29.3a.mp4,stims/wedding-29.4a.mp4,stims/wedding-29.5.mp4,stimsday2details/egg29.png,stimsday2details/newegg15.png,stimsday2details/newperson30.png,stimsday2details/couple29.png,stimsday2details/gift29.png,stimsday2details/new30.png,stimsday2details/n29.png,stimsday2details/cn29.png,stimsday2details/ct29.png,stimsday2details/t29.png,0,5,5,5,,,,,,,,,0,0,0,0,,,,,,,,,,,,,,,,,,,,,3.0529696471057832,None,768.4229405010119,793.3725985670462,793.3725985670462,None,802.3725170302205,None,819.3722725310363,None,842.371976246126,None,866.37162652798,None,,,,,,,,,,,,,,,,,,,,,,,,,,,,,,,,,,,,,,,,,,,,,,,,,,,,,,,,,,,,,,,,,,,,,,,,,,,,,001,13,2019_Aug_28_0951,viewing,3.1.2,59.99450890314117,
north.png,stims/wedding-29.1a.mp4,stims/wedding-29.1b.mp4,stims/wedding-29.2a.mp4,stims/wedding-29.3a.mp4,stims/wedding-29.4a.mp4,stims/wedding-29.5.mp4,stimsday2details/egg29.png,stimsday2details/newegg15.png,stimsday2details/newperson30.png,stimsday2details/couple29.png,stimsday2details/gift29.png,stimsday2details/new30.png,stimsday2details/n29.png,stimsday2details/cn29.png,stimsday2details/ct29.png,stimsday2details/t29.png,0,5,5,5,,,,,,,,,,,,,0,0,0,0,,,,,,,,,,,,,,,,,,,,,,,,,,,,,,,None,None,None,None,None,None,None,None,None,None,None,None,None,None,None,None,None,None,None,,None,None,None,,None,None,,,,,,,,,,,,,,,,,,,,,,,,,,,,,,,,,,,,,,,,,,,,,,,,,,,001,13,2019_Aug_28_0951,viewing,3.1.2,59.99450890314117,
north.png,stims/wedding-29.1a.mp4,stims/wedding-29.1b.mp4,stims/wedding-29.2a.mp4,stims/wedding-29.3a.mp4,stims/wedding-29.4a.mp4,stims/wedding-29.5.mp4,stimsday2details/egg29.png,stimsday2details/newegg15.png,stimsday2details/newperson30.png,stimsday2details/couple29.png,stimsday2details/gift29.png,stimsday2details/new30.png,stimsday2details/n29.png,stimsday2details/cn29.png,stimsday2details/ct29.png,stimsday2details/t29.png,0,5,5,5,,,,,,,,,,,,,,,,,,,,,,,,,,,,,,,,,,,,,,,,,,,,,,,,,,,,,,,,,,,,,,,,,,,,,,,,,3.959285095334053e-05,None,1,0.7521136626601219,889.9881425383501,None,889.9881425383501,None,889.9881425383501,None,891.9880328243598,None,1,0.5689609609544277,891.9880328243598,None,891.9880328243598,None,893.9880051999353,None,893.9880051999353,None,2,0.8187861749902368,893.9880051999353,None,2,1.802430187817663,895.9879476833157,None,895.9879476833157,None,895.9879476833157,None,897.9879381610081,None,897.9879381610081,None,1,1.0856814640574157,897.9879381610081,None,899.987858152017,None,899.987858152017,None,1,1.1520114787854254,899.987858152017,None,001,13,2019_Aug_28_0951,viewing,3.1.2,59.99450890314117,
north.png,stims/wedding-2.1a.mp4,stims/wedding-2.1b.mp4,stims/wedding-2.2b.mp4,stims/wedding-2.3b.mp4,stims/wedding-2.4b.mp4,stims/wedding-2.5.mp4,stimsday2details/newpainting16.png,stimsday2details/painting2.png,stimsday2details/couple2.png,stimsday2details/newperson31.png,stimsday2details/new31.png,stimsday2details/gift2.png,stimsday2details/n2.png,stimsday2details/cn2.png,stimsday2details/ct2.png,stimsday2details/t2.png,0,6,6,6,0,0,0,0,,,,,,,,,,,,,,,,,,,,,,,,,None,None,,,,,,,,,,,,,,,,,,,,,,,,,,,,,,,,,,,,,,,,,,,,,,,,,,,,,,,,,,,,,,,,,,,,,,,,,,,,,,,,,,,,,,,,,,,,,001,13,2019_Aug_28_0951,viewing,3.1.2,59.99450890314117,
north.png,stims/wedding-2.1a.mp4,stims/wedding-2.1b.mp4,stims/wedding-2.2b.mp4,stims/wedding-2.3b.mp4,stims/wedding-2.4b.mp4,stims/wedding-2.5.mp4,stimsday2details/newpainting16.png,stimsday2details/painting2.png,stimsday2details/couple2.png,stimsday2details/newperson31.png,stimsday2details/new31.png,stimsday2details/gift2.png,stimsday2details/n2.png,stimsday2details/cn2.png,stimsday2details/ct2.png,stimsday2details/t2.png,0,6,6,6,,,,,0,0,0,0,,,,,,,,,,,,,,,,,,,,,,,902.1378198852763,None,,,,,,,,,,,,,,,,,,,,,,,,,,,,,,,,,,,,,,,,,,,,,,,,,,,,,,,,,,,,,,,,,,,,,,,,,,,,,,,,,,,,,,,,,,,001,13,2019_Aug_28_0951,viewing,3.1.2,59.99450890314117,
north.png,stims/wedding-2.1a.mp4,stims/wedding-2.1b.mp4,stims/wedding-2.2b.mp4,stims/wedding-2.3b.mp4,stims/wedding-2.4b.mp4,stims/wedding-2.5.mp4,stimsday2details/newpainting16.png,stimsday2details/painting2.png,stimsday2details/couple2.png,stimsday2details/newperson31.png,stimsday2details/new31.png,stimsday2details/gift2.png,stimsday2details/n2.png,stimsday2details/cn2.png,stimsday2details/ct2.png,stimsday2details/t2.png,0,6,6,6,,,,,,,,,0,0,0,0,,,,,,,,,,,,,,,,,,,,,3.0587673857808113,None,912.3877716260031,None,937.3374149389565,None,946.3373034950346,None,963.3370833052322,986.3200795431621,986.3367307549343,1010.3198385071009,1010.3365023541264,None,,,,,,,,,,,,,,,,,,,,,,,,,,,,,,,,,,,,,,,,,,,,,,,,,,,,,,,,,,,,,,,,,,,,,,,,,,,,,001,13,2019_Aug_28_0951,viewing,3.1.2,59.99450890314117,
north.png,stims/wedding-2.1a.mp4,stims/wedding-2.1b.mp4,stims/wedding-2.2b.mp4,stims/wedding-2.3b.mp4,stims/wedding-2.4b.mp4,stims/wedding-2.5.mp4,stimsday2details/newpainting16.png,stimsday2details/painting2.png,stimsday2details/couple2.png,stimsday2details/newperson31.png,stimsday2details/new31.png,stimsday2details/gift2.png,stimsday2details/n2.png,stimsday2details/cn2.png,stimsday2details/ct2.png,stimsday2details/t2.png,0,6,6,6,,,,,,,,,,,,,0,0,0,0,,,,,,,,,,,,,,,,,,,,,,,,,,,,,,,None,None,None,None,None,None,None,None,None,None,None,None,None,None,None,None,None,None,None,,None,None,None,,None,None,,,,,,,,,,,,,,,,,,,,,,,,,,,,,,,,,,,,,,,,,,,,,,,,,,,001,13,2019_Aug_28_0951,viewing,3.1.2,59.99450890314117,
north.png,stims/wedding-2.1a.mp4,stims/wedding-2.1b.mp4,stims/wedding-2.2b.mp4,stims/wedding-2.3b.mp4,stims/wedding-2.4b.mp4,stims/wedding-2.5.mp4,stimsday2details/newpainting16.png,stimsday2details/painting2.png,stimsday2details/couple2.png,stimsday2details/newperson31.png,stimsday2details/new31.png,stimsday2details/gift2.png,stimsday2details/n2.png,stimsday2details/cn2.png,stimsday2details/ct2.png,stimsday2details/t2.png,0,6,6,6,,,,,,,,,,,,,,,,,,,,,,,,,,,,,,,,,,,,,,,,,,,,,,,,,,,,,,,,,,,,,,,,,,,,,,,,,3.9628706872463226e-05,None,1,0.7816279730759561,1034.573606979102,None,1034.573606979102,None,1034.573606979102,None,1036.5528261973523,None,2,0.635546431876719,1036.5528261973523,None,1036.5528261973523,None,1038.5527782221325,None,1038.5527782221325,None,1,0.8689497848972678,1038.5527782221325,None,2,1.1022766078822315,1040.5527338013053,None,1040.5527338013053,None,1040.5527338013053,None,1042.5526868682355,None,1042.5526868682355,None,2,0.8356989407911897,1042.5526868682355,None,1044.5527306380682,None,1044.5527306380682,None,1,0.9523149491287768,1044.5527306380682,None,001,13,2019_Aug_28_0951,viewing,3.1.2,59.99450890314117,
south.png,stims/wedding-28.1a.mp4,stims/wedding-28.1b.mp4,stims/wedding-28.2a.mp4,stims/wedding-28.3b.mp4,stims/wedding-28.4a.mp4,stims/wedding-28.5.mp4,stimsday2details/egg28.png,stimsday2details/newegg16.png,stimsday2details/newperson32.png,stimsday2details/couple28.png,stimsday2details/new32.png,stimsday2details/gift28.png,stimsday2details/n28.png,stimsday2details/cn28.png,stimsday2details/t28.png,stimsday2details/ct28.png,0,7,7,7,0,0,0,0,,,,,,,,,,,,,,,,,,,,,,,,,1046.5526644811034,None,,,,,,,,,,,,,,,,,,,,,,,,,,,,,,,,,,,,,,,,,,,,,,,,,,,,,,,,,,,,,,,,,,,,,,,,,,,,,,,,,,,,,,,,,,,,,001,13,2019_Aug_28_0951,viewing,3.1.2,59.99450890314117,
south.png,stims/wedding-28.1a.mp4,stims/wedding-28.1b.mp4,stims/wedding-28.2a.mp4,stims/wedding-28.3b.mp4,stims/wedding-28.4a.mp4,stims/wedding-28.5.mp4,stimsday2details/egg28.png,stimsday2details/newegg16.png,stimsday2details/newperson32.png,stimsday2details/couple28.png,stimsday2details/new32.png,stimsday2details/gift28.png,stimsday2details/n28.png,stimsday2details/cn28.png,stimsday2details/t28.png,stimsday2details/ct28.png,0,7,7,7,,,,,0,0,0,0,,,,,,,,,,,,,,,,,,,,,,,None,None,,,,,,,,,,,,,,,,,,,,,,,,,,,,,,,,,,,,,,,,,,,,,,,,,,,,,,,,,,,,,,,,,,,,,,,,,,,,,,,,,,,,,,,,,,,001,13,2019_Aug_28_0951,viewing,3.1.2,59.99450890314117,
south.png,stims/wedding-28.1a.mp4,stims/wedding-28.1b.mp4,stims/wedding-28.2a.mp4,stims/wedding-28.3b.mp4,stims/wedding-28.4a.mp4,stims/wedding-28.5.mp4,stimsday2details/egg28.png,stimsday2details/newegg16.png,stimsday2details/newperson32.png,stimsday2details/couple28.png,stimsday2details/new32.png,stimsday2details/gift28.png,stimsday2details/n28.png,stimsday2details/cn28.png,stimsday2details/t28.png,stimsday2details/ct28.png,0,7,7,7,,,,,,,,,0,0,0,0,,,,,,,,,,,,,,,,,,,,,3.1753926062956452,None,1057.1026240610518,1081.9355497723445,1081.9355497723445,None,1090.9353922712617,1107.9352035629563,1107.9352035629563,1130.9349155221134,1130.9349155221134,1154.9346087942831,1154.9346087942831,None,,,,,,,,,,,,,,,,,,,,,,,,,,,,,,,,,,,,,,,,,,,,,,,,,,,,,,,,,,,,,,,,,,,,,,,,,,,,,001,13,2019_Aug_28_0951,viewing,3.1.2,59.99450890314117,
south.png,stims/wedding-28.1a.mp4,stims/wedding-28.1b.mp4,stims/wedding-28.2a.mp4,stims/wedding-28.3b.mp4,stims/wedding-28.4a.mp4,stims/wedding-28.5.mp4,stimsday2details/egg28.png,stimsday2details/newegg16.png,stimsday2details/newperson32.png,stimsday2details/couple28.png,stimsday2details/new32.png,stimsday2details/gift28.png,stimsday2details/n28.png,stimsday2details/cn28.png,stimsday2details/t28.png,stimsday2details/ct28.png,0,7,7,7,,,,,,,,,,,,,0,0,0,0,,,,,,,,,,,,,,,,,,,,,,,,,,,,,,,None,None,None,None,None,None,None,None,None,None,None,None,None,None,None,None,None,None,None,,None,None,None,,None,None,,,,,,,,,,,,,,,,,,,,,,,,,,,,,,,,,,,,,,,,,,,,,,,,,,,001,13,2019_Aug_28_0951,viewing,3.1.2,59.99450890314117,
south.png,stims/wedding-28.1a.mp4,stims/wedding-28.1b.mp4,stims/wedding-28.2a.mp4,stims/wedding-28.3b.mp4,stims/wedding-28.4a.mp4,stims/wedding-28.5.mp4,stimsday2details/egg28.png,stimsday2details/newegg16.png,stimsday2details/newperson32.png,stimsday2details/couple28.png,stimsday2details/new32.png,stimsday2details/gift28.png,stimsday2details/n28.png,stimsday2details/cn28.png,stimsday2details/t28.png,stimsday2details/ct28.png,0,7,7,7,,,,,,,,,,,,,,,,,,,,,,,,,,,,,,,,,,,,,,,,,,,,,,,,,,,,,,,,,,,,,,,,,,,,,,,,,4.353374242782593e-05,None,1,1.2359003312885761,1179.5843335483223,None,1179.5843335483223,None,1179.5843335483223,None,1181.5842663343064,None,1,0.7022912418469787,1181.5842663343064,None,1181.5842663343064,None,1183.5841766083613,None,1183.5841766083613,None,2,0.8526695743203163,1183.5841766083613,None,1,1.2690215669572353,1185.5842272662558,None,1185.5842272662558,None,1185.5842272662558,None,1187.5841915742494,None,1187.5841915742494,None,2,0.6690152012743056,1187.5841915742494,None,1189.5841960571706,None,1189.5841960571706,None,2,1.4522362877614796,1189.5841960571706,None,001,13,2019_Aug_28_0951,viewing,3.1.2,59.99450890314117,
south.png,stims/wedding-20.1a.mp4,stims/wedding-20.1b.mp4,stims/wedding-20.2a.mp4,stims/wedding-20.3b.mp4,stims/wedding-20.4a.mp4,stims/wedding-20.5.mp4,stimsday2details/egg20.png,stimsday2details/newegg17.png,stimsday2details/newperson33.png,stimsday2details/couple20.png,stimsday2details/gift20.png,stimsday2details/new33.png,stimsday2details/cn20.png,stimsday2details/n20.png,stimsday2details/t20.png,stimsday2details/ct20.png,0,8,8,8,0,0,0,0,,,,,,,,,,,,,,,,,,,,,,,,,1191.5841112011112,None,,,,,,,,,,,,,,,,,,,,,,,,,,,,,,,,,,,,,,,,,,,,,,,,,,,,,,,,,,,,,,,,,,,,,,,,,,,,,,,,,,,,,,,,,,,,,001,13,2019_Aug_28_0951,viewing,3.1.2,59.99450890314117,
south.png,stims/wedding-20.1a.mp4,stims/wedding-20.1b.mp4,stims/wedding-20.2a.mp4,stims/wedding-20.3b.mp4,stims/wedding-20.4a.mp4,stims/wedding-20.5.mp4,stimsday2details/egg20.png,stimsday2details/newegg17.png,stimsday2details/newperson33.png,stimsday2details/couple20.png,stimsday2details/gift20.png,stimsday2details/new33.png,stimsday2details/cn20.png,stimsday2details/n20.png,stimsday2details/t20.png,stimsday2details/ct20.png,0,8,8,8,,,,,0,0,0,0,,,,,,,,,,,,,,,,,,,,,,,None,None,,,,,,,,,,,,,,,,,,,,,,,,,,,,,,,,,,,,,,,,,,,,,,,,,,,,,,,,,,,,,,,,,,,,,,,,,,,,,,,,,,,,,,,,,,,001,13,2019_Aug_28_0951,viewing,3.1.2,59.99450890314117,
south.png,stims/wedding-20.1a.mp4,stims/wedding-20.1b.mp4,stims/wedding-20.2a.mp4,stims/wedding-20.3b.mp4,stims/wedding-20.4a.mp4,stims/wedding-20.5.mp4,stimsday2details/egg20.png,stimsday2details/newegg17.png,stimsday2details/newperson33.png,stimsday2details/couple20.png,stimsday2details/gift20.png,stimsday2details/new33.png,stimsday2details/cn20.png,stimsday2details/n20.png,stimsday2details/t20.png,stimsday2details/ct20.png,0,8,8,8,,,,,,,,,0,0,0,0,,,,,,,,,,,,,,,,,,,,,3.3108721720054746,None,1202.3178793601692,1227.0002781399526,1227.0170104033314,None,1236.0168754970655,1253.0000017979182,1253.0166880120523,1275.9996989960782,1276.0163763691671,1299.999409812037,1300.0160505082458,None,,,,,,,,,,,,,,,,,,,,,,,,,,,,,,,,,,,,,,,,,,,,,,,,,,,,,,,,,,,,,,,,,,,,,,,,,,,,,001,13,2019_Aug_28_0951,viewing,3.1.2,59.99450890314117,
south.png,stims/wedding-20.1a.mp4,stims/wedding-20.1b.mp4,stims/wedding-20.2a.mp4,stims/wedding-20.3b.mp4,stims/wedding-20.4a.mp4,stims/wedding-20.5.mp4,stimsday2details/egg20.png,stimsday2details/newegg17.png,stimsday2details/newperson33.png,stimsday2details/couple20.png,stimsday2details/gift20.png,stimsday2details/new33.png,stimsday2details/cn20.png,stimsday2details/n20.png,stimsday2details/t20.png,stimsday2details/ct20.png,0,8,8,8,,,,,,,,,,,,,0,0,0,0,,,,,,,,,,,,,,,,,,,,,,,,,,,,,,,None,None,None,None,None,None,None,None,None,None,None,None,None,None,None,None,None,None,None,,None,None,None,,None,None,,,,,,,,,,,,,,,,,,,,,,,,,,,,,,,,,,,,,,,,,,,,,,,,,,,001,13,2019_Aug_28_0951,viewing,3.1.2,59.99450890314117,
south.png,stims/wedding-20.1a.mp4,stims/wedding-20.1b.mp4,stims/wedding-20.2a.mp4,stims/wedding-20.3b.mp4,stims/wedding-20.4a.mp4,stims/wedding-20.5.mp4,stimsday2details/egg20.png,stimsday2details/newegg17.png,stimsday2details/newperson33.png,stimsday2details/couple20.png,stimsday2details/gift20.png,stimsday2details/new33.png,stimsday2details/cn20.png,stimsday2details/n20.png,stimsday2details/t20.png,stimsday2details/ct20.png,0,8,8,8,,,,,,,,,,,,,,,,,,,,,,,,,,,,,,,,,,,,,,,,,,,,,,,,,,,,,,,,,,,,,,,,,,,,,,,,,2.775108441710472e-05,None,2,0.868793420959264,1323.4658430959098,None,1323.4658430959098,None,1323.4658430959098,None,1325.449008435011,None,1,0.8191649876534939,1325.449008435011,None,1325.449008435011,None,1327.4490287732333,None,1327.4490287732333,None,2,0.5188358393497765,1327.4490287732333,None,1,0.7522849719971418,1329.4489580481313,None,1329.4489580481313,None,1329.4489580481313,None,1331.4489692430943,None,1331.4489692430943,None,1,0.6522456384263933,1331.4489692430943,None,1333.4489172291942,None,1333.4489172291942,None,2,0.7523247292265296,1333.4489172291942,None,001,13,2019_Aug_28_0951,viewing,3.1.2,59.99450890314117,
north.png,stims/wedding-6.1a.mp4,stims/wedding-6.1b.mp4,stims/wedding-6.2b.mp4,stims/wedding-6.3b.mp4,stims/wedding-6.4b.mp4,stims/wedding-6.5.mp4,stimsday2details/painting6.png,stimsday2details/newpainting17.png,stimsday2details/newperson34.png,stimsday2details/couple6.png,stimsday2details/gift6.png,stimsday2details/new34.png,stimsday2details/n6.png,stimsday2details/cn6.png,stimsday2details/t6.png,stimsday2details/ct6.png,0,9,9,9,0,0,0,0,,,,,,,,,,,,,,,,,,,,,,,,,None,None,,,,,,,,,,,,,,,,,,,,,,,,,,,,,,,,,,,,,,,,,,,,,,,,,,,,,,,,,,,,,,,,,,,,,,,,,,,,,,,,,,,,,,,,,,,,,001,13,2019_Aug_28_0951,viewing,3.1.2,59.99450890314117,
north.png,stims/wedding-6.1a.mp4,stims/wedding-6.1b.mp4,stims/wedding-6.2b.mp4,stims/wedding-6.3b.mp4,stims/wedding-6.4b.mp4,stims/wedding-6.5.mp4,stimsday2details/painting6.png,stimsday2details/newpainting17.png,stimsday2details/newperson34.png,stimsday2details/couple6.png,stimsday2details/gift6.png,stimsday2details/new34.png,stimsday2details/n6.png,stimsday2details/cn6.png,stimsday2details/t6.png,stimsday2details/ct6.png,0,9,9,9,,,,,0,0,0,0,,,,,,,,,,,,,,,,,,,,,,,1335.6822784682736,None,,,,,,,,,,,,,,,,,,,,,,,,,,,,,,,,,,,,,,,,,,,,,,,,,,,,,,,,,,,,,,,,,,,,,,,,,,,,,,,,,,,,,,,,,,,001,13,2019_Aug_28_0951,viewing,3.1.2,59.99450890314117,
north.png,stims/wedding-6.1a.mp4,stims/wedding-6.1b.mp4,stims/wedding-6.2b.mp4,stims/wedding-6.3b.mp4,stims/wedding-6.4b.mp4,stims/wedding-6.5.mp4,stimsday2details/painting6.png,stimsday2details/newpainting17.png,stimsday2details/newperson34.png,stimsday2details/couple6.png,stimsday2details/gift6.png,stimsday2details/new34.png,stimsday2details/n6.png,stimsday2details/cn6.png,stimsday2details/t6.png,stimsday2details/ct6.png,0,9,9,9,,,,,,,,,0,0,0,0,,,,,,,,,,,,,,,,,,,,,3.194191236048937,None,1346.1154556903057,1370.915148803033,1370.931798207108,None,1379.9316826192662,None,1396.931461978238,1419.9144519381225,1419.9311603289098,None,1443.930850198958,None,,,,,,,,,,,,,,,,,,,,,,,,,,,,,,,,,,,,,,,,,,,,,,,,,,,,,,,,,,,,,,,,,,,,,,,,,,,,,001,13,2019_Aug_28_0951,viewing,3.1.2,59.99450890314117,
north.png,stims/wedding-6.1a.mp4,stims/wedding-6.1b.mp4,stims/wedding-6.2b.mp4,stims/wedding-6.3b.mp4,stims/wedding-6.4b.mp4,stims/wedding-6.5.mp4,stimsday2details/painting6.png,stimsday2details/newpainting17.png,stimsday2details/newperson34.png,stimsday2details/couple6.png,stimsday2details/gift6.png,stimsday2details/new34.png,stimsday2details/n6.png,stimsday2details/cn6.png,stimsday2details/t6.png,stimsday2details/ct6.png,0,9,9,9,,,,,,,,,,,,,0,0,0,0,,,,,,,,,,,,,,,,,,,,,,,,,,,,,,,None,None,None,None,None,None,None,None,None,None,None,None,None,None,None,None,None,None,None,,None,None,None,,None,None,,,,,,,,,,,,,,,,,,,,,,,,,,,,,,,,,,,,,,,,,,,,,,,,,,,001,13,2019_Aug_28_0951,viewing,3.1.2,59.99450890314117,
north.png,stims/wedding-6.1a.mp4,stims/wedding-6.1b.mp4,stims/wedding-6.2b.mp4,stims/wedding-6.3b.mp4,stims/wedding-6.4b.mp4,stims/wedding-6.5.mp4,stimsday2details/painting6.png,stimsday2details/newpainting17.png,stimsday2details/newperson34.png,stimsday2details/couple6.png,stimsday2details/gift6.png,stimsday2details/new34.png,stimsday2details/n6.png,stimsday2details/cn6.png,stimsday2details/t6.png,stimsday2details/ct6.png,0,9,9,9,,,,,,,,,,,,,,,,,,,,,,,,,,,,,,,,,,,,,,,,,,,,,,,,,,,,,,,,,,,,,,,,,,,,,,,,,5.218293517827988e-05,None,1,1.1023106100037694,1468.1138741620816,None,1468.1138741620816,None,1468.1138741620816,None,1470.0971951861866,None,1,0.5502796387299895,1470.0971951861866,None,1470.0971951861866,None,1472.0971653349698,None,1472.0971653349698,None,2,0.8355442946776748,1472.0971653349698,None,1,0.9355722866021097,1474.0971655603498,None,1474.0971655603498,None,1474.0971655603498,None,1476.097060432192,None,1476.097060432192,None,1,0.8858456648886204,1476.097060432192,None,1478.0970538291149,None,1478.0970538291149,None,1,1.433598822914064,1478.0970538291149,None,001,13,2019_Aug_28_0951,viewing,3.1.2,59.99450890314117,
north.png,stims/wedding-17.1a.mp4,stims/wedding-17.1b.mp4,stims/wedding-17.2a.mp4,stims/wedding-17.3a.mp4,stims/wedding-17.4a.mp4,stims/wedding-17.5.mp4,stimsday2details/egg17.png,stimsday2details/newegg18.png,stimsday2details/newperson35.png,stimsday2details/couple17.png,stimsday2details/gift17.png,stimsday2details/new35.png,stimsday2details/cn17.png,stimsday2details/n17.png,stimsday2details/t17.png,stimsday2details/ct17.png,0,10,10,10,0,0,0,0,,,,,,,,,,,,,,,,,,,,,,,,,None,None,,,,,,,,,,,,,,,,,,,,,,,,,,,,,,,,,,,,,,,,,,,,,,,,,,,,,,,,,,,,,,,,,,,,,,,,,,,,,,,,,,,,,,,,,,,,,001,13,2019_Aug_28_0951,viewing,3.1.2,59.99450890314117,
north.png,stims/wedding-17.1a.mp4,stims/wedding-17.1b.mp4,stims/wedding-17.2a.mp4,stims/wedding-17.3a.mp4,stims/wedding-17.4a.mp4,stims/wedding-17.5.mp4,stimsday2details/egg17.png,stimsday2details/newegg18.png,stimsday2details/newperson35.png,stimsday2details/couple17.png,stimsday2details/gift17.png,stimsday2details/new35.png,stimsday2details/cn17.png,stimsday2details/n17.png,stimsday2details/t17.png,stimsday2details/ct17.png,0,10,10,10,,,,,0,0,0,0,,,,,,,,,,,,,,,,,,,,,,,1480.3469898393378,None,,,,,,,,,,,,,,,,,,,,,,,,,,,,,,,,,,,,,,,,,,,,,,,,,,,,,,,,,,,,,,,,,,,,,,,,,,,,,,,,,,,,,,,,,,,001,13,2019_Aug_28_0951,viewing,3.1.2,59.99450890314117,
north.png,stims/wedding-17.1a.mp4,stims/wedding-17.1b.mp4,stims/wedding-17.2a.mp4,stims/wedding-17.3a.mp4,stims/wedding-17.4a.mp4,stims/wedding-17.5.mp4,stimsday2details/egg17.png,stimsday2details/newegg18.png,stimsday2details/newperson35.png,stimsday2details/couple17.png,stimsday2details/gift17.png,stimsday2details/new35.png,stimsday2details/cn17.png,stimsday2details/n17.png,stimsday2details/t17.png,stimsday2details/ct17.png,0,10,10,10,,,,,,,,,0,0,0,0,,,,,,,,,,,,,,,,,,,,,3.2606252608820796,None,1490.8636085721664,None,1515.6132230702788,None,1524.6130922501907,1541.612874031067,1541.612874031067,None,1564.612583591137,None,1588.6122562843375,None,,,,,,,,,,,,,,,,,,,,,,,,,,,,,,,,,,,,,,,,,,,,,,,,,,,,,,,,,,,,,,,,,,,,,,,,,,,,,001,13,2019_Aug_28_0951,viewing,3.1.2,59.99450890314117,
north.png,stims/wedding-17.1a.mp4,stims/wedding-17.1b.mp4,stims/wedding-17.2a.mp4,stims/wedding-17.3a.mp4,stims/wedding-17.4a.mp4,stims/wedding-17.5.mp4,stimsday2details/egg17.png,stimsday2details/newegg18.png,stimsday2details/newperson35.png,stimsday2details/couple17.png,stimsday2details/gift17.png,stimsday2details/new35.png,stimsday2details/cn17.png,stimsday2details/n17.png,stimsday2details/t17.png,stimsday2details/ct17.png,0,10,10,10,,,,,,,,,,,,,0,0,0,0,,,,,,,,,,,,,,,,,,,,,,,,,,,,,,,None,None,None,None,None,None,None,None,None,None,None,None,None,None,None,None,None,None,None,,None,None,None,,None,None,,,,,,,,,,,,,,,,,,,,,,,,,,,,,,,,,,,,,,,,,,,,,,,,,,,001,13,2019_Aug_28_0951,viewing,3.1.2,59.99450890314117,
north.png,stims/wedding-17.1a.mp4,stims/wedding-17.1b.mp4,stims/wedding-17.2a.mp4,stims/wedding-17.3a.mp4,stims/wedding-17.4a.mp4,stims/wedding-17.5.mp4,stimsday2details/egg17.png,stimsday2details/newegg18.png,stimsday2details/newperson35.png,stimsday2details/couple17.png,stimsday2details/gift17.png,stimsday2details/new35.png,stimsday2details/cn17.png,stimsday2details/n17.png,stimsday2details/t17.png,stimsday2details/ct17.png,0,10,10,10,,,,,,,,,,,,,,,,,,,,,,,,,,,,,,,,,,,,,,,,,,,,,,,,,,,,,,,,,,,,,,,,,,,,,,,,,2.9793940484523773e-05,None,2,1.0354914502240717,1612.9120266069658,None,1612.9120266069658,None,1612.9120266069658,None,1614.9119714642875,None,1,1.5871837949380279,1614.9119714642875,None,1614.9119714642875,None,1616.9119570879266,None,1616.9119570879266,None,2,0.9189150054007769,1616.9119570879266,None,1,0.9855638989247382,1618.911947581917,None,1618.911947581917,None,1618.911947581917,None,1620.9118866142817,None,1620.9118866142817,None,1,0.6022380427457392,1620.9118866142817,None,1622.9118843260221,None,1622.9118843260221,None,1,1.2355379769578576,1622.9118843260221,None,001,13,2019_Aug_28_0951,viewing,3.1.2,59.99450890314117,
south.png,stims/wedding-22.1a.mp4,stims/wedding-22.1b.mp4,stims/wedding-22.2b.mp4,stims/wedding-22.3a.mp4,stims/wedding-22.4b.mp4,stims/wedding-22.5.mp4,stimsday2details/newpainting18.png,stimsday2details/painting22.png,stimsday2details/newperson36.png,stimsday2details/couple22.png,stimsday2details/gift22.png,stimsday2details/new36.png,stimsday2details/cn22.png,stimsday2details/n22.png,stimsday2details/ct22.png,stimsday2details/t22.png,0,11,11,11,0,0,0,0,,,,,,,,,,,,,,,,,,,,,,,,,1624.91186973406,None,,,,,,,,,,,,,,,,,,,,,,,,,,,,,,,,,,,,,,,,,,,,,,,,,,,,,,,,,,,,,,,,,,,,,,,,,,,,,,,,,,,,,,,,,,,,,001,13,2019_Aug_28_0951,viewing,3.1.2,59.99450890314117,
south.png,stims/wedding-22.1a.mp4,stims/wedding-22.1b.mp4,stims/wedding-22.2b.mp4,stims/wedding-22.3a.mp4,stims/wedding-22.4b.mp4,stims/wedding-22.5.mp4,stimsday2details/newpainting18.png,stimsday2details/painting22.png,stimsday2details/newperson36.png,stimsday2details/couple22.png,stimsday2details/gift22.png,stimsday2details/new36.png,stimsday2details/cn22.png,stimsday2details/n22.png,stimsday2details/ct22.png,stimsday2details/t22.png,0,11,11,11,,,,,0,0,0,0,,,,,,,,,,,,,,,,,,,,,,,None,None,,,,,,,,,,,,,,,,,,,,,,,,,,,,,,,,,,,,,,,,,,,,,,,,,,,,,,,,,,,,,,,,,,,,,,,,,,,,,,,,,,,,,,,,,,,001,13,2019_Aug_28_0951,viewing,3.1.2,59.99450890314117,
south.png,stims/wedding-22.1a.mp4,stims/wedding-22.1b.mp4,stims/wedding-22.2b.mp4,stims/wedding-22.3a.mp4,stims/wedding-22.4b.mp4,stims/wedding-22.5.mp4,stimsday2details/newpainting18.png,stimsday2details/painting22.png,stimsday2details/newperson36.png,stimsday2details/couple22.png,stimsday2details/gift22.png,stimsday2details/new36.png,stimsday2details/cn22.png,stimsday2details/n22.png,stimsday2details/ct22.png,stimsday2details/t22.png,0,11,11,11,,,,,,,,,0,0,0,0,,,,,,,,,,,,,,,,,,,,,None,None,None,None,None,None,None,None,None,None,None,None,None,None,,,,,,,,,,,,,,,,,,,,,,,,,,,,,,,,,,,,,,,,,,,,,,,,,,,,,,,,,,,,,,,,,,,,,,,,,,,,,001,13,2019_Aug_28_0951,viewing,3.1.2,59.99450890314117,
south.png,stims/wedding-22.1a.mp4,stims/wedding-22.1b.mp4,stims/wedding-22.2b.mp4,stims/wedding-22.3a.mp4,stims/wedding-22.4b.mp4,stims/wedding-22.5.mp4,stimsday2details/newpainting18.png,stimsday2details/painting22.png,stimsday2details/newperson36.png,stimsday2details/couple22.png,stimsday2details/gift22.png,stimsday2details/new36.png,stimsday2details/cn22.png,stimsday2details/n22.png,stimsday2details/ct22.png,stimsday2details/t22.png,0,11,11,11,,,,,,,,,,,,,0,0,0,0,,,,,,,,,,,,,,,,,,,,,,,,,,,,,,,3.13379368185997,None,1639.195058836136,1664.0613200562075,1664.0780294481665,None,1673.077827844303,None,1690.0776193239726,1694.060971301049,1694.077597565949,1717.0606720619835,1717.0772943510674,1721.0606250041164,1721.07740501035,None,1745.0769387222826,None,['2'],[3.6189436856657267],1689.0777100552805,1694.060971301049,['1'],[2.0027196719311178],1716.0773027492687,1721.0606250041164,,,,,,,,,,,,,,,,,,,,,,,,,,,,,,,,,,,,,,,,,,,,,,,,,,,001,13,2019_Aug_28_0951,viewing,3.1.2,59.99450890314117,
south.png,stims/wedding-22.1a.mp4,stims/wedding-22.1b.mp4,stims/wedding-22.2b.mp4,stims/wedding-22.3a.mp4,stims/wedding-22.4b.mp4,stims/wedding-22.5.mp4,stimsday2details/newpainting18.png,stimsday2details/painting22.png,stimsday2details/newperson36.png,stimsday2details/couple22.png,stimsday2details/gift22.png,stimsday2details/new36.png,stimsday2details/cn22.png,stimsday2details/n22.png,stimsday2details/ct22.png,stimsday2details/t22.png,0,11,11,11,,,,,,,,,,,,,,,,,,,,,,,,,,,,,,,,,,,,,,,,,,,,,,,,,,,,,,,,,,,,,,,,,,,,,,,,,3.721797838807106e-05,None,2,1.2187179438769817,1765.8600799599662,None,1765.8600799599662,None,1765.8600799599662,None,1767.8599227182567,None,2,0.9690310000441968,1767.8599227182567,None,1767.8599227182567,None,1769.859906011261,None,1769.859906011261,None,2,1.1526595000177622,1769.859906011261,None,2,1.93558909278363,1771.8599124979228,None,1771.8599124979228,None,1771.8599124979228,None,1773.8598989760503,None,1773.8598989760503,None,1,1.002159730065614,1773.8598989760503,None,1775.8599137249403,None,1775.8599137249403,None,1,1.5855826381593943,1775.8599137249403,None,001,13,2019_Aug_28_0951,viewing,3.1.2,59.99450890314117,
