northOrSouth,stimFile1a,stimFile1b,stimFile2,stimFile3,stimFile4,stimFile5,Qeggpainting1,Qeggpainting2,Qcharacter1,Qcharacter2,Qgift1,Qgift2,Qname1,Qname2,Qtheme1,Qtheme2,trials.thisRepN,trials.thisTrialN,trials.thisN,trials.thisIndex,South.thisRepN,South.thisTrialN,South.thisN,South.thisIndex,North.thisRepN,North.thisTrialN,North.thisN,North.thisIndex,noQtrials.thisRepN,noQtrials.thisTrialN,noQtrials.thisN,noQtrials.thisIndex,Qtrials.thisRepN,Qtrials.thisTrialN,Qtrials.thisN,Qtrials.thisIndex,text.started,text.stopped,prep_trigger.keys,prep_trigger.rt,prep_trigger.started,prep_trigger.stopped,waiting.started,waiting.stopped,trigger.keys,trigger.rt,trigger.started,trigger.stopped,southCueImage.started,southCueImage.stopped,northCueImage.started,northCueImage.stopped,trialNoQs.started,trialNoQs.stopped,vid1a.started,vid1a.stopped,vid1b.started,vid1b.stopped,vid2.started,vid2.stopped,vid3.started,vid3.stopped,vid4.started,vid4.stopped,vid5.started,vid5.stopped,ISI2.started,ISI2.stopped,vid1a_q.started,vid1a_q.stopped,vid1b_q.started,vid1b_q.stopped,vid2_q.started,vid2_q.stopped,l2q.started,l2q.stopped,vid3_q.started,vid3_q.stopped,l3q.started,l3q.stopped,vid4_q.started,vid4_q.stopped,vid5_q.started,vid5_q.stopped,key_resp_2.keys,key_resp_2.rt,key_resp_2.started,key_resp_2.stopped,key_resp_3.keys,key_resp_3.rt,key_resp_3.started,key_resp_3.stopped,ISI7.started,ISI7.stopped,nameQresp.keys,nameQresp.rt,nameQresp.started,nameQresp.stopped,nameQ1.started,nameQ1.stopped,nameQ2.started,nameQ2.stopped,eggPainting1.started,eggPainting1.stopped,eggPaintingQresp.keys,eggPaintingQresp.rt,eggPaintingQresp.started,eggPaintingQresp.stopped,eggPainting2.started,eggPainting2.stopped,character1.started,character1.stopped,character2.started,character2.stopped,Qcharacter.keys,Qcharacter.rt,Qcharacter.started,Qcharacter.stopped,themeQresp.keys,themeQresp.rt,themeQresp.started,themeQresp.stopped,themeQ1.started,themeQ1.stopped,themeQ2.started,themeQ2.stopped,gift1.started,gift1.stopped,gift2.started,gift2.stopped,giftQresp.keys,giftQresp.rt,giftQresp.started,giftQresp.stopped,northorsouth1.started,northorsouth1.stopped,northorsouth2.started,northorsouth2.stopped,northOrSouthQ.keys,northOrSouthQ.rt,northOrSouthQ.started,northOrSouthQ.stopped,session,participant,date,expName,psychopyVersion,frameRate,
,,,,,,,,,,,,,,,,,,,,,,,,,,,,,,,,,,,,,9.316491386853158,None,g,0.38698420487344265,9.316491386853158,None,,,,,,,,,,,,,,,,,,,,,,,,,,,,,,,,,,,,,,,,,,,,,,,,,,,,,,,,,,,,,,,,,,,,,,,,,,,,,,,,,,,,,,,,,,,,,,,,,,,,,001,43,2020_Jan_28_1533,viewing,3.1.2,60.012114183721216,
,,,,,,,,,,,,,,,,,,,,,,,,,,,,,,,,,,,,,,,,,,,9.715600172057748,None,equal,21.502019941806793,9.715600172057748,None,,,,,,,,,,,,,,,,,,,,,,,,,,,,,,,,,,,,,,,,,,,,,,,,,,,,,,,,,,,,,,,,,,,,,,,,,,,,,,,,,,,,,,,,,,,,,,,001,43,2020_Jan_28_1533,viewing,3.1.2,60.012114183721216,
south.png,stims/wedding-2.1a.mp4,stims/wedding-2.1b.mp4,stims/wedding-2.2a.mp4,stims/wedding-2.3b.mp4,stims/wedding-2.4a.mp4,stims/wedding-2.5.mp4,stimsday2details/newegg13.png,stimsday2details/egg2.png,stimsday2details/newperson25.png,stimsday2details/couple2.png,stimsday2details/gift2.png,stimsday2details/new25.png,stimsday2details/cn2.png,stimsday2details/n2.png,stimsday2details/ct2.png,stimsday2details/t2.png,0,0,0,0,0,0,0,0,,,,,,,,,,,,,,,,,,,,,,,,,31.24866540543735,None,,,,,,,,,,,,,,,,,,,,,,,,,,,,,,,,,,,,,,,,,,,,,,,,,,,,,,,,,,,,,,,,,,,,,,,,,,,,,,,,,,,,,,,,,,,,,001,43,2020_Jan_28_1533,viewing,3.1.2,60.012114183721216,
south.png,stims/wedding-2.1a.mp4,stims/wedding-2.1b.mp4,stims/wedding-2.2a.mp4,stims/wedding-2.3b.mp4,stims/wedding-2.4a.mp4,stims/wedding-2.5.mp4,stimsday2details/newegg13.png,stimsday2details/egg2.png,stimsday2details/newperson25.png,stimsday2details/couple2.png,stimsday2details/gift2.png,stimsday2details/new25.png,stimsday2details/cn2.png,stimsday2details/n2.png,stimsday2details/ct2.png,stimsday2details/t2.png,0,0,0,0,,,,,0,0,0,0,,,,,,,,,,,,,,,,,,,,,,,None,None,,,,,,,,,,,,,,,,,,,,,,,,,,,,,,,,,,,,,,,,,,,,,,,,,,,,,,,,,,,,,,,,,,,,,,,,,,,,,,,,,,,,,,,,,,,001,43,2020_Jan_28_1533,viewing,3.1.2,60.012114183721216,
south.png,stims/wedding-2.1a.mp4,stims/wedding-2.1b.mp4,stims/wedding-2.2a.mp4,stims/wedding-2.3b.mp4,stims/wedding-2.4a.mp4,stims/wedding-2.5.mp4,stimsday2details/newegg13.png,stimsday2details/egg2.png,stimsday2details/newperson25.png,stimsday2details/couple2.png,stimsday2details/gift2.png,stimsday2details/new25.png,stimsday2details/cn2.png,stimsday2details/n2.png,stimsday2details/ct2.png,stimsday2details/t2.png,0,0,0,0,,,,,,,,,0,0,0,0,,,,,,,,,,,,,,,,,,,,,None,None,None,None,None,None,None,None,None,None,None,None,None,None,,,,,,,,,,,,,,,,,,,,,,,,,,,,,,,,,,,,,,,,,,,,,,,,,,,,,,,,,,,,,,,,,,,,,,,,,,,,,001,43,2020_Jan_28_1533,viewing,3.1.2,60.012114183721216,
south.png,stims/wedding-2.1a.mp4,stims/wedding-2.1b.mp4,stims/wedding-2.2a.mp4,stims/wedding-2.3b.mp4,stims/wedding-2.4a.mp4,stims/wedding-2.5.mp4,stimsday2details/newegg13.png,stimsday2details/egg2.png,stimsday2details/newperson25.png,stimsday2details/couple2.png,stimsday2details/gift2.png,stimsday2details/new25.png,stimsday2details/cn2.png,stimsday2details/n2.png,stimsday2details/ct2.png,stimsday2details/t2.png,0,0,0,0,,,,,,,,,,,,,0,0,0,0,,,,,,,,,,,,,,,,,,,,,,,,,,,,,,,2.725352630019188,None,43.982903067953885,None,69.28153739497066,None,78.28141909837723,None,95.28114369884133,99.264499633573,99.28107460681349,122.26420294586569,122.2808721140027,126.26427470333874,126.28102244716138,None,150.28068966791034,None,['2'],[3.318949794396758],94.28115265630186,99.264499633573,['2'],[3.868788493797183],121.28088446427137,126.26427470333874,,,,,,,,,,,,,,,,,,,,,,,,,,,,,,,,,,,,,,,,,,,,,,,,,,,001,43,2020_Jan_28_1533,viewing,3.1.2,60.012114183721216,
south.png,stims/wedding-2.1a.mp4,stims/wedding-2.1b.mp4,stims/wedding-2.2a.mp4,stims/wedding-2.3b.mp4,stims/wedding-2.4a.mp4,stims/wedding-2.5.mp4,stimsday2details/newegg13.png,stimsday2details/egg2.png,stimsday2details/newperson25.png,stimsday2details/couple2.png,stimsday2details/gift2.png,stimsday2details/new25.png,stimsday2details/cn2.png,stimsday2details/n2.png,stimsday2details/ct2.png,stimsday2details/t2.png,0,0,0,0,,,,,,,,,,,,,,,,,,,,,,,,,,,,,,,,,,,,,,,,,,,,,,,,,,,,,,,,,,,,,,,,,,,,,,,,,2.7293339371681213e-05,None,2,1.0020607756450772,170.99710511881858,None,170.99710511881858,None,170.99710511881858,None,172.99684576597065,None,2,1.1520163174718618,172.99684576597065,None,172.99684576597065,None,174.99682220164686,None,174.99682220164686,None,2,1.0687137264758348,174.99682220164686,None,2,1.2851960230618715,176.99680061079562,None,176.99680061079562,None,176.99680061079562,None,178.99698485434055,None,178.99698485434055,None,1,1.1189005840569735,178.99698485434055,None,180.996824555099,None,180.996824555099,None,2,1.1188041036948562,180.996824555099,None,001,43,2020_Jan_28_1533,viewing,3.1.2,60.012114183721216,
north.png,stims/wedding-29.1a.mp4,stims/wedding-29.1b.mp4,stims/wedding-29.2b.mp4,stims/wedding-29.3b.mp4,stims/wedding-29.4b.mp4,stims/wedding-29.5.mp4,stimsday2details/painting29.png,stimsday2details/newpainting13.png,stimsday2details/newperson26.png,stimsday2details/couple29.png,stimsday2details/gift29.png,stimsday2details/new26.png,stimsday2details/cn29.png,stimsday2details/n29.png,stimsday2details/t29.png,stimsday2details/ct29.png,0,1,1,1,0,0,0,0,,,,,,,,,,,,,,,,,,,,,,,,,None,None,,,,,,,,,,,,,,,,,,,,,,,,,,,,,,,,,,,,,,,,,,,,,,,,,,,,,,,,,,,,,,,,,,,,,,,,,,,,,,,,,,,,,,,,,,,,,001,43,2020_Jan_28_1533,viewing,3.1.2,60.012114183721216,
north.png,stims/wedding-29.1a.mp4,stims/wedding-29.1b.mp4,stims/wedding-29.2b.mp4,stims/wedding-29.3b.mp4,stims/wedding-29.4b.mp4,stims/wedding-29.5.mp4,stimsday2details/painting29.png,stimsday2details/newpainting13.png,stimsday2details/newperson26.png,stimsday2details/couple29.png,stimsday2details/gift29.png,stimsday2details/new26.png,stimsday2details/cn29.png,stimsday2details/n29.png,stimsday2details/t29.png,stimsday2details/ct29.png,0,1,1,1,,,,,0,0,0,0,,,,,,,,,,,,,,,,,,,,,,,183.04678678233176,None,,,,,,,,,,,,,,,,,,,,,,,,,,,,,,,,,,,,,,,,,,,,,,,,,,,,,,,,,,,,,,,,,,,,,,,,,,,,,,,,,,,,,,,,,,,001,43,2020_Jan_28_1533,viewing,3.1.2,60.012114183721216,
north.png,stims/wedding-29.1a.mp4,stims/wedding-29.1b.mp4,stims/wedding-29.2b.mp4,stims/wedding-29.3b.mp4,stims/wedding-29.4b.mp4,stims/wedding-29.5.mp4,stimsday2details/painting29.png,stimsday2details/newpainting13.png,stimsday2details/newperson26.png,stimsday2details/couple29.png,stimsday2details/gift29.png,stimsday2details/new26.png,stimsday2details/cn29.png,stimsday2details/n29.png,stimsday2details/t29.png,stimsday2details/ct29.png,0,1,1,1,,,,,,,,,0,0,0,0,,,,,,,,,,,,,,,,,,,,,3.05538772046566,None,193.14672188460827,218.09634277876467,218.11302127037197,None,227.11308900732547,None,244.1126906722784,267.09573500044644,267.1124031851068,None,291.11203320138156,None,,,,,,,,,,,,,,,,,,,,,,,,,,,,,,,,,,,,,,,,,,,,,,,,,,,,,,,,,,,,,,,,,,,,,,,,,,,,,001,43,2020_Jan_28_1533,viewing,3.1.2,60.012114183721216,
north.png,stims/wedding-29.1a.mp4,stims/wedding-29.1b.mp4,stims/wedding-29.2b.mp4,stims/wedding-29.3b.mp4,stims/wedding-29.4b.mp4,stims/wedding-29.5.mp4,stimsday2details/painting29.png,stimsday2details/newpainting13.png,stimsday2details/newperson26.png,stimsday2details/couple29.png,stimsday2details/gift29.png,stimsday2details/new26.png,stimsday2details/cn29.png,stimsday2details/n29.png,stimsday2details/t29.png,stimsday2details/ct29.png,0,1,1,1,,,,,,,,,,,,,0,0,0,0,,,,,,,,,,,,,,,,,,,,,,,,,,,,,,,None,None,None,None,None,None,None,None,None,None,None,None,None,None,None,None,None,None,None,,None,None,None,,None,None,,,,,,,,,,,,,,,,,,,,,,,,,,,,,,,,,,,,,,,,,,,,,,,,,,,001,43,2020_Jan_28_1533,viewing,3.1.2,60.012114183721216,
north.png,stims/wedding-29.1a.mp4,stims/wedding-29.1b.mp4,stims/wedding-29.2b.mp4,stims/wedding-29.3b.mp4,stims/wedding-29.4b.mp4,stims/wedding-29.5.mp4,stimsday2details/painting29.png,stimsday2details/newpainting13.png,stimsday2details/newperson26.png,stimsday2details/couple29.png,stimsday2details/gift29.png,stimsday2details/new26.png,stimsday2details/cn29.png,stimsday2details/n29.png,stimsday2details/t29.png,stimsday2details/ct29.png,0,1,1,1,,,,,,,,,,,,,,,,,,,,,,,,,,,,,,,,,,,,,,,,,,,,,,,,,,,,,,,,,,,,,,,,,,,,,,,,,2.8973445296287537e-05,None,2,1.1020575007423759,314.3284806786105,None,314.3284806786105,None,314.3284806786105,None,316.3283867109567,None,1,1.1191995861008763,316.3283867109567,None,316.3283867109567,None,318.32837008684874,None,318.32837008684874,None,2,1.0518738105893135,318.32837008684874,None,1,1.2859736643731594,320.328402755782,None,320.328402755782,None,320.328402755782,None,322.32849402166903,None,322.32849402166903,None,1,1.1021820167079568,322.32849402166903,None,324.3283760789782,None,324.3283760789782,None,1,1.0017502307891846,324.3283760789782,None,001,43,2020_Jan_28_1533,viewing,3.1.2,60.012114183721216,
north.png,stims/wedding-19.1a.mp4,stims/wedding-19.1b.mp4,stims/wedding-19.2a.mp4,stims/wedding-19.3a.mp4,stims/wedding-19.4a.mp4,stims/wedding-19.5.mp4,stimsday2details/egg19.png,stimsday2details/newegg14.png,stimsday2details/newperson27.png,stimsday2details/couple19.png,stimsday2details/gift19.png,stimsday2details/new27.png,stimsday2details/n19.png,stimsday2details/cn19.png,stimsday2details/ct19.png,stimsday2details/t19.png,0,2,2,2,0,0,0,0,,,,,,,,,,,,,,,,,,,,,,,,,None,None,,,,,,,,,,,,,,,,,,,,,,,,,,,,,,,,,,,,,,,,,,,,,,,,,,,,,,,,,,,,,,,,,,,,,,,,,,,,,,,,,,,,,,,,,,,,,001,43,2020_Jan_28_1533,viewing,3.1.2,60.012114183721216,
north.png,stims/wedding-19.1a.mp4,stims/wedding-19.1b.mp4,stims/wedding-19.2a.mp4,stims/wedding-19.3a.mp4,stims/wedding-19.4a.mp4,stims/wedding-19.5.mp4,stimsday2details/egg19.png,stimsday2details/newegg14.png,stimsday2details/newperson27.png,stimsday2details/couple19.png,stimsday2details/gift19.png,stimsday2details/new27.png,stimsday2details/n19.png,stimsday2details/cn19.png,stimsday2details/ct19.png,stimsday2details/t19.png,0,2,2,2,,,,,0,0,0,0,,,,,,,,,,,,,,,,,,,,,,,326.3949932307005,None,,,,,,,,,,,,,,,,,,,,,,,,,,,,,,,,,,,,,,,,,,,,,,,,,,,,,,,,,,,,,,,,,,,,,,,,,,,,,,,,,,,,,,,,,,,001,43,2020_Jan_28_1533,viewing,3.1.2,60.012114183721216,
north.png,stims/wedding-19.1a.mp4,stims/wedding-19.1b.mp4,stims/wedding-19.2a.mp4,stims/wedding-19.3a.mp4,stims/wedding-19.4a.mp4,stims/wedding-19.5.mp4,stimsday2details/egg19.png,stimsday2details/newegg14.png,stimsday2details/newperson27.png,stimsday2details/couple19.png,stimsday2details/gift19.png,stimsday2details/new27.png,stimsday2details/n19.png,stimsday2details/cn19.png,stimsday2details/ct19.png,stimsday2details/t19.png,0,2,2,2,,,,,,,,,0,0,0,0,,,,,,,,,,,,,,,,,,,,,3.177985766902566,None,336.64974858332425,361.46146318968385,361.47808636538684,None,370.4777384772897,387.4608333585784,387.4775422876701,410.4607978910208,410.47736011911184,None,434.47697593737394,None,,,,,,,,,,,,,,,,,,,,,,,,,,,,,,,,,,,,,,,,,,,,,,,,,,,,,,,,,,,,,,,,,,,,,,,,,,,,,001,43,2020_Jan_28_1533,viewing,3.1.2,60.012114183721216,
north.png,stims/wedding-19.1a.mp4,stims/wedding-19.1b.mp4,stims/wedding-19.2a.mp4,stims/wedding-19.3a.mp4,stims/wedding-19.4a.mp4,stims/wedding-19.5.mp4,stimsday2details/egg19.png,stimsday2details/newegg14.png,stimsday2details/newperson27.png,stimsday2details/couple19.png,stimsday2details/gift19.png,stimsday2details/new27.png,stimsday2details/n19.png,stimsday2details/cn19.png,stimsday2details/ct19.png,stimsday2details/t19.png,0,2,2,2,,,,,,,,,,,,,0,0,0,0,,,,,,,,,,,,,,,,,,,,,,,,,,,,,,,None,None,None,None,None,None,None,None,None,None,None,None,None,None,None,None,None,None,None,,None,None,None,,None,None,,,,,,,,,,,,,,,,,,,,,,,,,,,,,,,,,,,,,,,,,,,,,,,,,,,001,43,2020_Jan_28_1533,viewing,3.1.2,60.012114183721216,
north.png,stims/wedding-19.1a.mp4,stims/wedding-19.1b.mp4,stims/wedding-19.2a.mp4,stims/wedding-19.3a.mp4,stims/wedding-19.4a.mp4,stims/wedding-19.5.mp4,stimsday2details/egg19.png,stimsday2details/newegg14.png,stimsday2details/newperson27.png,stimsday2details/couple19.png,stimsday2details/gift19.png,stimsday2details/new27.png,stimsday2details/n19.png,stimsday2details/cn19.png,stimsday2details/ct19.png,stimsday2details/t19.png,0,2,2,2,,,,,,,,,,,,,,,,,,,,,,,,,,,,,,,,,,,,,,,,,,,,,,,,,,,,,,,,,,,,,,,,,,,,,,,,,3.529433161020279e-05,None,1,0.8023886289447546,458.6767470324412,None,458.6767470324412,None,458.6767470324412,None,460.6599860470742,None,1,0.8188692927360535,460.6599860470742,None,460.6599860470742,None,462.65995914209634,None,462.65995914209634,None,2,1.0855361884459853,462.65995914209634,None,2,1.2357002478092909,464.65992473065853,None,464.65992473065853,None,464.65992473065853,None,466.66008070111275,None,466.66008070111275,None,1,0.9351984970271587,466.66008070111275,None,468.65987843461335,None,468.65987843461335,None,1,0.9355904702097178,468.65987843461335,None,001,43,2020_Jan_28_1533,viewing,3.1.2,60.012114183721216,
south.png,stims/wedding-20.1a.mp4,stims/wedding-20.1b.mp4,stims/wedding-20.2b.mp4,stims/wedding-20.3a.mp4,stims/wedding-20.4b.mp4,stims/wedding-20.5.mp4,stimsday2details/newpainting14.png,stimsday2details/painting20.png,stimsday2details/couple20.png,stimsday2details/newperson28.png,stimsday2details/gift20.png,stimsday2details/new28.png,stimsday2details/cn20.png,stimsday2details/n20.png,stimsday2details/t20.png,stimsday2details/ct20.png,0,3,3,3,0,0,0,0,,,,,,,,,,,,,,,,,,,,,,,,,470.66000465583056,None,,,,,,,,,,,,,,,,,,,,,,,,,,,,,,,,,,,,,,,,,,,,,,,,,,,,,,,,,,,,,,,,,,,,,,,,,,,,,,,,,,,,,,,,,,,,,001,43,2020_Jan_28_1533,viewing,3.1.2,60.012114183721216,
south.png,stims/wedding-20.1a.mp4,stims/wedding-20.1b.mp4,stims/wedding-20.2b.mp4,stims/wedding-20.3a.mp4,stims/wedding-20.4b.mp4,stims/wedding-20.5.mp4,stimsday2details/newpainting14.png,stimsday2details/painting20.png,stimsday2details/couple20.png,stimsday2details/newperson28.png,stimsday2details/gift20.png,stimsday2details/new28.png,stimsday2details/cn20.png,stimsday2details/n20.png,stimsday2details/t20.png,stimsday2details/ct20.png,0,3,3,3,,,,,0,0,0,0,,,,,,,,,,,,,,,,,,,,,,,None,None,,,,,,,,,,,,,,,,,,,,,,,,,,,,,,,,,,,,,,,,,,,,,,,,,,,,,,,,,,,,,,,,,,,,,,,,,,,,,,,,,,,,,,,,,,,001,43,2020_Jan_28_1533,viewing,3.1.2,60.012114183721216,
south.png,stims/wedding-20.1a.mp4,stims/wedding-20.1b.mp4,stims/wedding-20.2b.mp4,stims/wedding-20.3a.mp4,stims/wedding-20.4b.mp4,stims/wedding-20.5.mp4,stimsday2details/newpainting14.png,stimsday2details/painting20.png,stimsday2details/couple20.png,stimsday2details/newperson28.png,stimsday2details/gift20.png,stimsday2details/new28.png,stimsday2details/cn20.png,stimsday2details/n20.png,stimsday2details/t20.png,stimsday2details/ct20.png,0,3,3,3,,,,,,,,,0,0,0,0,,,,,,,,,,,,,,,,,,,,,2.927578404545784,None,480.77639858983457,505.8427459625527,505.8595949616283,None,514.8593227043748,None,531.8592871818691,554.8421324137598,554.8587982431054,None,578.8586010644212,None,,,,,,,,,,,,,,,,,,,,,,,,,,,,,,,,,,,,,,,,,,,,,,,,,,,,,,,,,,,,,,,,,,,,,,,,,,,,,001,43,2020_Jan_28_1533,viewing,3.1.2,60.012114183721216,
south.png,stims/wedding-20.1a.mp4,stims/wedding-20.1b.mp4,stims/wedding-20.2b.mp4,stims/wedding-20.3a.mp4,stims/wedding-20.4b.mp4,stims/wedding-20.5.mp4,stimsday2details/newpainting14.png,stimsday2details/painting20.png,stimsday2details/couple20.png,stimsday2details/newperson28.png,stimsday2details/gift20.png,stimsday2details/new28.png,stimsday2details/cn20.png,stimsday2details/n20.png,stimsday2details/t20.png,stimsday2details/ct20.png,0,3,3,3,,,,,,,,,,,,,0,0,0,0,,,,,,,,,,,,,,,,,,,,,,,,,,,,,,,None,None,None,None,None,None,None,None,None,None,None,None,None,None,None,None,None,None,None,,None,None,None,,None,None,,,,,,,,,,,,,,,,,,,,,,,,,,,,,,,,,,,,,,,,,,,,,,,,,,,001,43,2020_Jan_28_1533,viewing,3.1.2,60.012114183721216,
south.png,stims/wedding-20.1a.mp4,stims/wedding-20.1b.mp4,stims/wedding-20.2b.mp4,stims/wedding-20.3a.mp4,stims/wedding-20.4b.mp4,stims/wedding-20.5.mp4,stimsday2details/newpainting14.png,stimsday2details/painting20.png,stimsday2details/couple20.png,stimsday2details/newperson28.png,stimsday2details/gift20.png,stimsday2details/new28.png,stimsday2details/cn20.png,stimsday2details/n20.png,stimsday2details/t20.png,stimsday2details/ct20.png,0,3,3,3,,,,,,,,,,,,,,,,,,,,,,,,,,,,,,,,,,,,,,,,,,,,,,,,,,,,,,,,,,,,,,,,,,,,,,,,,4.014652222394943e-05,None,2,1.2522340901196003,601.6914808126166,None,601.6914808126166,None,601.6914808126166,None,603.6747815599665,None,2,1.5189121067523956,603.6747815599665,None,603.6747815599665,None,605.6747414302081,None,605.6747414302081,None,1,1.10263517126441,605.6747414302081,None,1,0.9354188265278935,607.6750052571297,None,607.6750052571297,None,607.6750052571297,None,609.6747743822634,None,609.6747743822634,None,1,0.7352189617231488,609.6747743822634,None,611.6749555552378,None,611.6749555552378,None,2,1.4853738090023398,611.6749555552378,None,001,43,2020_Jan_28_1533,viewing,3.1.2,60.012114183721216,
south.png,stims/wedding-34.1a.mp4,stims/wedding-34.1b.mp4,stims/wedding-34.2a.mp4,stims/wedding-34.3b.mp4,stims/wedding-34.4a.mp4,stims/wedding-34.5.mp4,stimsday2details/egg34.png,stimsday2details/newegg15.png,stimsday2details/newperson29.png,stimsday2details/couple34.png,stimsday2details/new29.png,stimsday2details/gift34.png,stimsday2details/cn34.png,stimsday2details/n34.png,stimsday2details/ct34.png,stimsday2details/t34.png,0,4,4,4,0,0,0,0,,,,,,,,,,,,,,,,,,,,,,,,,613.6747201243415,None,,,,,,,,,,,,,,,,,,,,,,,,,,,,,,,,,,,,,,,,,,,,,,,,,,,,,,,,,,,,,,,,,,,,,,,,,,,,,,,,,,,,,,,,,,,,,001,43,2020_Jan_28_1533,viewing,3.1.2,60.012114183721216,
south.png,stims/wedding-34.1a.mp4,stims/wedding-34.1b.mp4,stims/wedding-34.2a.mp4,stims/wedding-34.3b.mp4,stims/wedding-34.4a.mp4,stims/wedding-34.5.mp4,stimsday2details/egg34.png,stimsday2details/newegg15.png,stimsday2details/newperson29.png,stimsday2details/couple34.png,stimsday2details/new29.png,stimsday2details/gift34.png,stimsday2details/cn34.png,stimsday2details/n34.png,stimsday2details/ct34.png,stimsday2details/t34.png,0,4,4,4,,,,,0,0,0,0,,,,,,,,,,,,,,,,,,,,,,,None,None,,,,,,,,,,,,,,,,,,,,,,,,,,,,,,,,,,,,,,,,,,,,,,,,,,,,,,,,,,,,,,,,,,,,,,,,,,,,,,,,,,,,,,,,,,,001,43,2020_Jan_28_1533,viewing,3.1.2,60.012114183721216,
south.png,stims/wedding-34.1a.mp4,stims/wedding-34.1b.mp4,stims/wedding-34.2a.mp4,stims/wedding-34.3b.mp4,stims/wedding-34.4a.mp4,stims/wedding-34.5.mp4,stimsday2details/egg34.png,stimsday2details/newegg15.png,stimsday2details/newperson29.png,stimsday2details/couple34.png,stimsday2details/new29.png,stimsday2details/gift34.png,stimsday2details/cn34.png,stimsday2details/n34.png,stimsday2details/ct34.png,stimsday2details/t34.png,0,4,4,4,,,,,,,,,0,0,0,0,,,,,,,,,,,,,,,,,,,,,3.3127366974949837,None,624.2079933742061,648.9076144527644,648.9076144527644,None,657.9074991345406,None,674.907285971567,697.9069956578314,697.9069956578314,721.9068478597328,721.9068478597328,None,,,,,,,,,,,,,,,,,,,,,,,,,,,,,,,,,,,,,,,,,,,,,,,,,,,,,,,,,,,,,,,,,,,,,,,,,,,,,001,43,2020_Jan_28_1533,viewing,3.1.2,60.012114183721216,
south.png,stims/wedding-34.1a.mp4,stims/wedding-34.1b.mp4,stims/wedding-34.2a.mp4,stims/wedding-34.3b.mp4,stims/wedding-34.4a.mp4,stims/wedding-34.5.mp4,stimsday2details/egg34.png,stimsday2details/newegg15.png,stimsday2details/newperson29.png,stimsday2details/couple34.png,stimsday2details/new29.png,stimsday2details/gift34.png,stimsday2details/cn34.png,stimsday2details/n34.png,stimsday2details/ct34.png,stimsday2details/t34.png,0,4,4,4,,,,,,,,,,,,,0,0,0,0,,,,,,,,,,,,,,,,,,,,,,,,,,,,,,,None,None,None,None,None,None,None,None,None,None,None,None,None,None,None,None,None,None,None,,None,None,None,,None,None,,,,,,,,,,,,,,,,,,,,,,,,,,,,,,,,,,,,,,,,,,,,,,,,,,,001,43,2020_Jan_28_1533,viewing,3.1.2,60.012114183721216,
south.png,stims/wedding-34.1a.mp4,stims/wedding-34.1b.mp4,stims/wedding-34.2a.mp4,stims/wedding-34.3b.mp4,stims/wedding-34.4a.mp4,stims/wedding-34.5.mp4,stimsday2details/egg34.png,stimsday2details/newegg15.png,stimsday2details/newperson29.png,stimsday2details/couple34.png,stimsday2details/new29.png,stimsday2details/gift34.png,stimsday2details/cn34.png,stimsday2details/n34.png,stimsday2details/ct34.png,stimsday2details/t34.png,0,4,4,4,,,,,,,,,,,,,,,,,,,,,,,,,,,,,,,,,,,,,,,,,,,,,,,,,,,,,,,,,,,,,,,,,,,,,,,,,3.505125641822815e-05,None,2,1.1709625711664557,745.5230410732329,None,745.5230410732329,None,745.5230410732329,None,747.5229709697887,None,1,1.4337810073047876,747.5229709697887,None,747.5229709697887,None,749.5230075009167,None,749.5230075009167,None,2,1.1024132370948792,749.5230075009167,None,2,1.0666907792910933,751.5231809774414,None,751.5231809774414,None,751.5231809774414,None,753.5229614181444,None,753.5229614181444,None,2,0.81883739028126,753.5229614181444,None,755.5228712148964,None,755.5228712148964,None,2,1.118893233127892,755.5228712148964,None,001,43,2020_Jan_28_1533,viewing,3.1.2,60.012114183721216,
north.png,stims/wedding-17.1a.mp4,stims/wedding-17.1b.mp4,stims/wedding-17.2a.mp4,stims/wedding-17.3a.mp4,stims/wedding-17.4a.mp4,stims/wedding-17.5.mp4,stimsday2details/newegg16.png,stimsday2details/egg17.png,stimsday2details/couple17.png,stimsday2details/newperson30.png,stimsday2details/new30.png,stimsday2details/gift17.png,stimsday2details/cn17.png,stimsday2details/n17.png,stimsday2details/ct17.png,stimsday2details/t17.png,0,5,5,5,0,0,0,0,,,,,,,,,,,,,,,,,,,,,,,,,None,None,,,,,,,,,,,,,,,,,,,,,,,,,,,,,,,,,,,,,,,,,,,,,,,,,,,,,,,,,,,,,,,,,,,,,,,,,,,,,,,,,,,,,,,,,,,,,001,43,2020_Jan_28_1533,viewing,3.1.2,60.012114183721216,
north.png,stims/wedding-17.1a.mp4,stims/wedding-17.1b.mp4,stims/wedding-17.2a.mp4,stims/wedding-17.3a.mp4,stims/wedding-17.4a.mp4,stims/wedding-17.5.mp4,stimsday2details/newegg16.png,stimsday2details/egg17.png,stimsday2details/couple17.png,stimsday2details/newperson30.png,stimsday2details/new30.png,stimsday2details/gift17.png,stimsday2details/cn17.png,stimsday2details/n17.png,stimsday2details/ct17.png,stimsday2details/t17.png,0,5,5,5,,,,,0,0,0,0,,,,,,,,,,,,,,,,,,,,,,,757.6562448255718,None,,,,,,,,,,,,,,,,,,,,,,,,,,,,,,,,,,,,,,,,,,,,,,,,,,,,,,,,,,,,,,,,,,,,,,,,,,,,,,,,,,,,,,,,,,,001,43,2020_Jan_28_1533,viewing,3.1.2,60.012114183721216,
north.png,stims/wedding-17.1a.mp4,stims/wedding-17.1b.mp4,stims/wedding-17.2a.mp4,stims/wedding-17.3a.mp4,stims/wedding-17.4a.mp4,stims/wedding-17.5.mp4,stimsday2details/newegg16.png,stimsday2details/egg17.png,stimsday2details/couple17.png,stimsday2details/newperson30.png,stimsday2details/new30.png,stimsday2details/gift17.png,stimsday2details/cn17.png,stimsday2details/n17.png,stimsday2details/ct17.png,stimsday2details/t17.png,0,5,5,5,,,,,,,,,0,0,0,0,,,,,,,,,,,,,,,,,,,,,3.1896181711927056,None,767.9895798377693,None,792.8058029226959,None,801.8058433569968,818.78895446565,818.8055451875553,None,841.8052737070248,None,865.8048826009035,None,,,,,,,,,,,,,,,,,,,,,,,,,,,,,,,,,,,,,,,,,,,,,,,,,,,,,,,,,,,,,,,,,,,,,,,,,,,,,001,43,2020_Jan_28_1533,viewing,3.1.2,60.012114183721216,
north.png,stims/wedding-17.1a.mp4,stims/wedding-17.1b.mp4,stims/wedding-17.2a.mp4,stims/wedding-17.3a.mp4,stims/wedding-17.4a.mp4,stims/wedding-17.5.mp4,stimsday2details/newegg16.png,stimsday2details/egg17.png,stimsday2details/couple17.png,stimsday2details/newperson30.png,stimsday2details/new30.png,stimsday2details/gift17.png,stimsday2details/cn17.png,stimsday2details/n17.png,stimsday2details/ct17.png,stimsday2details/t17.png,0,5,5,5,,,,,,,,,,,,,0,0,0,0,,,,,,,,,,,,,,,,,,,,,,,,,,,,,,,None,None,None,None,None,None,None,None,None,None,None,None,None,None,None,None,None,None,None,,None,None,None,,None,None,,,,,,,,,,,,,,,,,,,,,,,,,,,,,,,,,,,,,,,,,,,,,,,,,,,001,43,2020_Jan_28_1533,viewing,3.1.2,60.012114183721216,
north.png,stims/wedding-17.1a.mp4,stims/wedding-17.1b.mp4,stims/wedding-17.2a.mp4,stims/wedding-17.3a.mp4,stims/wedding-17.4a.mp4,stims/wedding-17.5.mp4,stimsday2details/newegg16.png,stimsday2details/egg17.png,stimsday2details/couple17.png,stimsday2details/newperson30.png,stimsday2details/new30.png,stimsday2details/gift17.png,stimsday2details/cn17.png,stimsday2details/n17.png,stimsday2details/ct17.png,stimsday2details/t17.png,0,5,5,5,,,,,,,,,,,,,,,,,,,,,,,,,,,,,,,,,,,,,,,,,,,,,,,,,,,,,,,,,,,,,,,,,,,,,,,,,3.5171397030353546e-05,None,2,1.2518066810443997,889.6548398742452,None,889.6548398742452,None,889.6548398742452,None,891.6378897055984,None,2,0.802216631360352,891.6378897055984,None,891.6378897055984,None,893.6378614725545,None,893.6378614725545,None,1,0.8857521852478385,893.6378614725545,None,2,1.0336109586060047,895.6378380870447,None,895.6378380870447,None,895.6378380870447,None,897.6378183346242,None,897.6378183346242,None,2,0.9019389366731048,897.6378183346242,None,899.6377240819857,None,899.6377240819857,None,1,1.0690454998984933,899.6377240819857,None,001,43,2020_Jan_28_1533,viewing,3.1.2,60.012114183721216,
north.png,stims/wedding-38.1a.mp4,stims/wedding-38.1b.mp4,stims/wedding-38.2b.mp4,stims/wedding-38.3b.mp4,stims/wedding-38.4b.mp4,stims/wedding-38.5.mp4,stimsday2details/painting38.png,stimsday2details/newpainting15.png,stimsday2details/newperson31.png,stimsday2details/couple38.png,stimsday2details/new31.png,stimsday2details/gift38.png,stimsday2details/cn38.png,stimsday2details/n38.png,stimsday2details/t38.png,stimsday2details/ct38.png,0,6,6,6,0,0,0,0,,,,,,,,,,,,,,,,,,,,,,,,,None,None,,,,,,,,,,,,,,,,,,,,,,,,,,,,,,,,,,,,,,,,,,,,,,,,,,,,,,,,,,,,,,,,,,,,,,,,,,,,,,,,,,,,,,,,,,,,,001,43,2020_Jan_28_1533,viewing,3.1.2,60.012114183721216,
north.png,stims/wedding-38.1a.mp4,stims/wedding-38.1b.mp4,stims/wedding-38.2b.mp4,stims/wedding-38.3b.mp4,stims/wedding-38.4b.mp4,stims/wedding-38.5.mp4,stimsday2details/painting38.png,stimsday2details/newpainting15.png,stimsday2details/newperson31.png,stimsday2details/couple38.png,stimsday2details/new31.png,stimsday2details/gift38.png,stimsday2details/cn38.png,stimsday2details/n38.png,stimsday2details/t38.png,stimsday2details/ct38.png,0,6,6,6,,,,,0,0,0,0,,,,,,,,,,,,,,,,,,,,,,,901.7877097781748,None,,,,,,,,,,,,,,,,,,,,,,,,,,,,,,,,,,,,,,,,,,,,,,,,,,,,,,,,,,,,,,,,,,,,,,,,,,,,,,,,,,,,,,,,,,,001,43,2020_Jan_28_1533,viewing,3.1.2,60.012114183721216,
north.png,stims/wedding-38.1a.mp4,stims/wedding-38.1b.mp4,stims/wedding-38.2b.mp4,stims/wedding-38.3b.mp4,stims/wedding-38.4b.mp4,stims/wedding-38.5.mp4,stimsday2details/painting38.png,stimsday2details/newpainting15.png,stimsday2details/newperson31.png,stimsday2details/couple38.png,stimsday2details/new31.png,stimsday2details/gift38.png,stimsday2details/cn38.png,stimsday2details/n38.png,stimsday2details/t38.png,stimsday2details/ct38.png,0,6,6,6,,,,,,,,,0,0,0,0,,,,,,,,,,,,,,,,,,,,,3.1682943757623434,None,912.354360351339,937.1874868646264,937.2041349606588,None,946.2041015103459,None,963.2035985570401,986.1868995707482,986.2035709191114,None,1010.2030773144215,None,,,,,,,,,,,,,,,,,,,,,,,,,,,,,,,,,,,,,,,,,,,,,,,,,,,,,,,,,,,,,,,,,,,,,,,,,,,,,001,43,2020_Jan_28_1533,viewing,3.1.2,60.012114183721216,
north.png,stims/wedding-38.1a.mp4,stims/wedding-38.1b.mp4,stims/wedding-38.2b.mp4,stims/wedding-38.3b.mp4,stims/wedding-38.4b.mp4,stims/wedding-38.5.mp4,stimsday2details/painting38.png,stimsday2details/newpainting15.png,stimsday2details/newperson31.png,stimsday2details/couple38.png,stimsday2details/new31.png,stimsday2details/gift38.png,stimsday2details/cn38.png,stimsday2details/n38.png,stimsday2details/t38.png,stimsday2details/ct38.png,0,6,6,6,,,,,,,,,,,,,0,0,0,0,,,,,,,,,,,,,,,,,,,,,,,,,,,,,,,None,None,None,None,None,None,None,None,None,None,None,None,None,None,None,None,None,None,None,,None,None,None,,None,None,,,,,,,,,,,,,,,,,,,,,,,,,,,,,,,,,,,,,,,,,,,,,,,,,,,001,43,2020_Jan_28_1533,viewing,3.1.2,60.012114183721216,
north.png,stims/wedding-38.1a.mp4,stims/wedding-38.1b.mp4,stims/wedding-38.2b.mp4,stims/wedding-38.3b.mp4,stims/wedding-38.4b.mp4,stims/wedding-38.5.mp4,stimsday2details/painting38.png,stimsday2details/newpainting15.png,stimsday2details/newperson31.png,stimsday2details/couple38.png,stimsday2details/new31.png,stimsday2details/gift38.png,stimsday2details/cn38.png,stimsday2details/n38.png,stimsday2details/t38.png,stimsday2details/ct38.png,0,6,6,6,,,,,,,,,,,,,,,,,,,,,,,,,,,,,,,,,,,,,,,,,,,,,,,,,,,,,,,,,,,,,,,,,,,,,,,,,3.0471011996269226e-05,None,2,1.5326297841966152,1034.2224781773984,None,1034.2224781773984,None,1034.2224781773984,None,1036.2027508793399,None,1,1.3190601589158177,1036.2027508793399,None,1036.2027508793399,None,1038.202915511094,None,1038.202915511094,None,2,1.3525493713095784,1038.202915511094,None,1,0.9689677022397518,1040.2026959788054,None,1040.2026959788054,None,1040.2026959788054,None,1042.202811166644,None,1042.202811166644,None,2,1.0021948590874672,1042.202811166644,None,1044.2025854252279,None,1044.2025854252279,None,1,1.235332077369094,1044.2025854252279,None,001,43,2020_Jan_28_1533,viewing,3.1.2,60.012114183721216,
south.png,stims/wedding-1.1a.mp4,stims/wedding-1.1b.mp4,stims/wedding-1.2a.mp4,stims/wedding-1.3b.mp4,stims/wedding-1.4a.mp4,stims/wedding-1.5.mp4,stimsday2details/newegg17.png,stimsday2details/egg1.png,stimsday2details/couple1.png,stimsday2details/newperson32.png,stimsday2details/gift1.png,stimsday2details/new32.png,stimsday2details/cn1.png,stimsday2details/n1.png,stimsday2details/ct1.png,stimsday2details/t1.png,0,7,7,7,0,0,0,0,,,,,,,,,,,,,,,,,,,,,,,,,1046.2027066582814,None,,,,,,,,,,,,,,,,,,,,,,,,,,,,,,,,,,,,,,,,,,,,,,,,,,,,,,,,,,,,,,,,,,,,,,,,,,,,,,,,,,,,,,,,,,,,,001,43,2020_Jan_28_1533,viewing,3.1.2,60.012114183721216,
south.png,stims/wedding-1.1a.mp4,stims/wedding-1.1b.mp4,stims/wedding-1.2a.mp4,stims/wedding-1.3b.mp4,stims/wedding-1.4a.mp4,stims/wedding-1.5.mp4,stimsday2details/newegg17.png,stimsday2details/egg1.png,stimsday2details/couple1.png,stimsday2details/newperson32.png,stimsday2details/gift1.png,stimsday2details/new32.png,stimsday2details/cn1.png,stimsday2details/n1.png,stimsday2details/ct1.png,stimsday2details/t1.png,0,7,7,7,,,,,0,0,0,0,,,,,,,,,,,,,,,,,,,,,,,None,None,,,,,,,,,,,,,,,,,,,,,,,,,,,,,,,,,,,,,,,,,,,,,,,,,,,,,,,,,,,,,,,,,,,,,,,,,,,,,,,,,,,,,,,,,,,001,43,2020_Jan_28_1533,viewing,3.1.2,60.012114183721216,
south.png,stims/wedding-1.1a.mp4,stims/wedding-1.1b.mp4,stims/wedding-1.2a.mp4,stims/wedding-1.3b.mp4,stims/wedding-1.4a.mp4,stims/wedding-1.5.mp4,stimsday2details/newegg17.png,stimsday2details/egg1.png,stimsday2details/couple1.png,stimsday2details/newperson32.png,stimsday2details/gift1.png,stimsday2details/new32.png,stimsday2details/cn1.png,stimsday2details/n1.png,stimsday2details/ct1.png,stimsday2details/t1.png,0,7,7,7,,,,,,,,,0,0,0,0,,,,,,,,,,,,,,,,,,,,,3.231470282189548,None,1056.7860915036872,1081.5691927205771,1081.5691927205771,None,1090.5689140679315,1107.5687216212973,1107.5687216212973,1130.5684249289334,1130.5684249289334,None,1154.567873778753,None,,,,,,,,,,,,,,,,,,,,,,,,,,,,,,,,,,,,,,,,,,,,,,,,,,,,,,,,,,,,,,,,,,,,,,,,,,,,,001,43,2020_Jan_28_1533,viewing,3.1.2,60.012114183721216,
south.png,stims/wedding-1.1a.mp4,stims/wedding-1.1b.mp4,stims/wedding-1.2a.mp4,stims/wedding-1.3b.mp4,stims/wedding-1.4a.mp4,stims/wedding-1.5.mp4,stimsday2details/newegg17.png,stimsday2details/egg1.png,stimsday2details/couple1.png,stimsday2details/newperson32.png,stimsday2details/gift1.png,stimsday2details/new32.png,stimsday2details/cn1.png,stimsday2details/n1.png,stimsday2details/ct1.png,stimsday2details/t1.png,0,7,7,7,,,,,,,,,,,,,0,0,0,0,,,,,,,,,,,,,,,,,,,,,,,,,,,,,,,None,None,None,None,None,None,None,None,None,None,None,None,None,None,None,None,None,None,None,,None,None,None,,None,None,,,,,,,,,,,,,,,,,,,,,,,,,,,,,,,,,,,,,,,,,,,,,,,,,,,001,43,2020_Jan_28_1533,viewing,3.1.2,60.012114183721216,
south.png,stims/wedding-1.1a.mp4,stims/wedding-1.1b.mp4,stims/wedding-1.2a.mp4,stims/wedding-1.3b.mp4,stims/wedding-1.4a.mp4,stims/wedding-1.5.mp4,stimsday2details/newegg17.png,stimsday2details/egg1.png,stimsday2details/couple1.png,stimsday2details/newperson32.png,stimsday2details/gift1.png,stimsday2details/new32.png,stimsday2details/cn1.png,stimsday2details/n1.png,stimsday2details/ct1.png,stimsday2details/t1.png,0,7,7,7,,,,,,,,,,,,,,,,,,,,,,,,,,,,,,,,,,,,,,,,,,,,,,,,,,,,,,,,,,,,,,,,,,,,,,,,,4.7966837882995605e-05,None,2,1.165783466771245,1178.4877400062978,None,1178.4877400062978,None,1178.4877400062978,None,1180.467602812685,None,2,0.7193570658564568,1180.467602812685,None,1180.467602812685,None,1182.4675804423168,None,1182.4675804423168,None,1,0.9188647232949734,1182.4675804423168,None,2,0.9859306141734123,1184.4675594717264,None,1184.4675594717264,None,1184.4675594717264,None,1186.4675283860415,None,1186.4675283860415,None,1,0.9524555122479796,1186.4675283860415,None,1188.467506670393,None,1188.467506670393,None,None,,1188.467506670393,None,001,43,2020_Jan_28_1533,viewing,3.1.2,60.012114183721216,
south.png,stims/wedding-28.1a.mp4,stims/wedding-28.1b.mp4,stims/wedding-28.2b.mp4,stims/wedding-28.3a.mp4,stims/wedding-28.4b.mp4,stims/wedding-28.5.mp4,stimsday2details/painting28.png,stimsday2details/newpainting16.png,stimsday2details/newperson33.png,stimsday2details/couple28.png,stimsday2details/gift28.png,stimsday2details/new33.png,stimsday2details/cn28.png,stimsday2details/n28.png,stimsday2details/ct28.png,stimsday2details/t28.png,0,8,8,8,0,0,0,0,,,,,,,,,,,,,,,,,,,,,,,,,1190.467481176369,None,,,,,,,,,,,,,,,,,,,,,,,,,,,,,,,,,,,,,,,,,,,,,,,,,,,,,,,,,,,,,,,,,,,,,,,,,,,,,,,,,,,,,,,,,,,,,001,43,2020_Jan_28_1533,viewing,3.1.2,60.012114183721216,
south.png,stims/wedding-28.1a.mp4,stims/wedding-28.1b.mp4,stims/wedding-28.2b.mp4,stims/wedding-28.3a.mp4,stims/wedding-28.4b.mp4,stims/wedding-28.5.mp4,stimsday2details/painting28.png,stimsday2details/newpainting16.png,stimsday2details/newperson33.png,stimsday2details/couple28.png,stimsday2details/gift28.png,stimsday2details/new33.png,stimsday2details/cn28.png,stimsday2details/n28.png,stimsday2details/ct28.png,stimsday2details/t28.png,0,8,8,8,,,,,0,0,0,0,,,,,,,,,,,,,,,,,,,,,,,None,None,,,,,,,,,,,,,,,,,,,,,,,,,,,,,,,,,,,,,,,,,,,,,,,,,,,,,,,,,,,,,,,,,,,,,,,,,,,,,,,,,,,,,,,,,,,001,43,2020_Jan_28_1533,viewing,3.1.2,60.012114183721216,
south.png,stims/wedding-28.1a.mp4,stims/wedding-28.1b.mp4,stims/wedding-28.2b.mp4,stims/wedding-28.3a.mp4,stims/wedding-28.4b.mp4,stims/wedding-28.5.mp4,stimsday2details/painting28.png,stimsday2details/newpainting16.png,stimsday2details/newperson33.png,stimsday2details/couple28.png,stimsday2details/gift28.png,stimsday2details/new33.png,stimsday2details/cn28.png,stimsday2details/n28.png,stimsday2details/ct28.png,stimsday2details/t28.png,0,8,8,8,,,,,,,,,0,0,0,0,,,,,,,,,,,,,,,,,,,,,2.9518709694966674,None,1200.8175641251728,1225.867029612884,1225.8837005849928,None,1234.8835914824158,None,1251.8833755366504,1274.866415916942,1274.8830254068598,None,1298.8829644760117,None,,,,,,,,,,,,,,,,,,,,,,,,,,,,,,,,,,,,,,,,,,,,,,,,,,,,,,,,,,,,,,,,,,,,,,,,,,,,,001,43,2020_Jan_28_1533,viewing,3.1.2,60.012114183721216,
south.png,stims/wedding-28.1a.mp4,stims/wedding-28.1b.mp4,stims/wedding-28.2b.mp4,stims/wedding-28.3a.mp4,stims/wedding-28.4b.mp4,stims/wedding-28.5.mp4,stimsday2details/painting28.png,stimsday2details/newpainting16.png,stimsday2details/newperson33.png,stimsday2details/couple28.png,stimsday2details/gift28.png,stimsday2details/new33.png,stimsday2details/cn28.png,stimsday2details/n28.png,stimsday2details/ct28.png,stimsday2details/t28.png,0,8,8,8,,,,,,,,,,,,,0,0,0,0,,,,,,,,,,,,,,,,,,,,,,,,,,,,,,,None,None,None,None,None,None,None,None,None,None,None,None,None,None,None,None,None,None,None,,None,None,None,,None,None,,,,,,,,,,,,,,,,,,,,,,,,,,,,,,,,,,,,,,,,,,,,,,,,,,,001,43,2020_Jan_28_1533,viewing,3.1.2,60.012114183721216,
south.png,stims/wedding-28.1a.mp4,stims/wedding-28.1b.mp4,stims/wedding-28.2b.mp4,stims/wedding-28.3a.mp4,stims/wedding-28.4b.mp4,stims/wedding-28.5.mp4,stimsday2details/painting28.png,stimsday2details/newpainting16.png,stimsday2details/newperson33.png,stimsday2details/couple28.png,stimsday2details/gift28.png,stimsday2details/new33.png,stimsday2details/cn28.png,stimsday2details/n28.png,stimsday2details/ct28.png,stimsday2details/t28.png,0,8,8,8,,,,,,,,,,,,,,,,,,,,,,,,,,,,,,,,,,,,,,,,,,,,,,,,,,,,,,,,,,,,,,,,,,,,,,,,,3.533065319061279e-05,None,2,1.0354105615988374,1323.3492564419284,None,1323.3492564419284,None,1323.3492564419284,None,1325.3492452390492,None,1,0.8192302826792002,1325.3492452390492,None,1325.3492452390492,None,1327.3493118584156,None,1327.3493118584156,None,2,0.7854144489392638,1327.3493118584156,None,2,1.1019865917041898,1329.3490690831095,None,1329.3490690831095,None,1329.3490690831095,None,1331.3490388626233,None,1331.3490388626233,None,1,0.7186809815466404,1331.3490388626233,None,1333.3490276848897,None,1333.3490276848897,None,2,0.8692538607865572,1333.3490276848897,None,001,43,2020_Jan_28_1533,viewing,3.1.2,60.012114183721216,
north.png,stims/wedding-23.1a.mp4,stims/wedding-23.1b.mp4,stims/wedding-23.2a.mp4,stims/wedding-23.3a.mp4,stims/wedding-23.4a.mp4,stims/wedding-23.5.mp4,stimsday2details/egg23.png,stimsday2details/newegg18.png,stimsday2details/couple23.png,stimsday2details/newperson34.png,stimsday2details/gift23.png,stimsday2details/new34.png,stimsday2details/cn23.png,stimsday2details/n23.png,stimsday2details/ct23.png,stimsday2details/t23.png,0,9,9,9,0,0,0,0,,,,,,,,,,,,,,,,,,,,,,,,,None,None,,,,,,,,,,,,,,,,,,,,,,,,,,,,,,,,,,,,,,,,,,,,,,,,,,,,,,,,,,,,,,,,,,,,,,,,,,,,,,,,,,,,,,,,,,,,,001,43,2020_Jan_28_1533,viewing,3.1.2,60.012114183721216,
north.png,stims/wedding-23.1a.mp4,stims/wedding-23.1b.mp4,stims/wedding-23.2a.mp4,stims/wedding-23.3a.mp4,stims/wedding-23.4a.mp4,stims/wedding-23.5.mp4,stimsday2details/egg23.png,stimsday2details/newegg18.png,stimsday2details/couple23.png,stimsday2details/newperson34.png,stimsday2details/gift23.png,stimsday2details/new34.png,stimsday2details/cn23.png,stimsday2details/n23.png,stimsday2details/ct23.png,stimsday2details/t23.png,0,9,9,9,,,,,0,0,0,0,,,,,,,,,,,,,,,,,,,,,,,1335.5657884841785,None,,,,,,,,,,,,,,,,,,,,,,,,,,,,,,,,,,,,,,,,,,,,,,,,,,,,,,,,,,,,,,,,,,,,,,,,,,,,,,,,,,,,,,,,,,,001,43,2020_Jan_28_1533,viewing,3.1.2,60.012114183721216,
north.png,stims/wedding-23.1a.mp4,stims/wedding-23.1b.mp4,stims/wedding-23.2a.mp4,stims/wedding-23.3a.mp4,stims/wedding-23.4a.mp4,stims/wedding-23.5.mp4,stimsday2details/egg23.png,stimsday2details/newegg18.png,stimsday2details/couple23.png,stimsday2details/newperson34.png,stimsday2details/gift23.png,stimsday2details/new34.png,stimsday2details/cn23.png,stimsday2details/n23.png,stimsday2details/ct23.png,stimsday2details/t23.png,0,9,9,9,,,,,,,,,0,0,0,0,,,,,,,,,,,,,,,,,,,,,3.127569505944848,None,1345.9155354527757,1370.7987393569201,1370.7987393569201,None,1379.7983721317723,1396.7982254512608,1396.7982254512608,1419.797938852571,1419.797938852571,1443.7976391017437,1443.7976391017437,None,,,,,,,,,,,,,,,,,,,,,,,,,,,,,,,,,,,,,,,,,,,,,,,,,,,,,,,,,,,,,,,,,,,,,,,,,,,,,001,43,2020_Jan_28_1533,viewing,3.1.2,60.012114183721216,
north.png,stims/wedding-23.1a.mp4,stims/wedding-23.1b.mp4,stims/wedding-23.2a.mp4,stims/wedding-23.3a.mp4,stims/wedding-23.4a.mp4,stims/wedding-23.5.mp4,stimsday2details/egg23.png,stimsday2details/newegg18.png,stimsday2details/couple23.png,stimsday2details/newperson34.png,stimsday2details/gift23.png,stimsday2details/new34.png,stimsday2details/cn23.png,stimsday2details/n23.png,stimsday2details/ct23.png,stimsday2details/t23.png,0,9,9,9,,,,,,,,,,,,,0,0,0,0,,,,,,,,,,,,,,,,,,,,,,,,,,,,,,,None,None,None,None,None,None,None,None,None,None,None,None,None,None,None,None,None,None,None,,None,None,None,,None,None,,,,,,,,,,,,,,,,,,,,,,,,,,,,,,,,,,,,,,,,,,,,,,,,,,,001,43,2020_Jan_28_1533,viewing,3.1.2,60.012114183721216,
north.png,stims/wedding-23.1a.mp4,stims/wedding-23.1b.mp4,stims/wedding-23.2a.mp4,stims/wedding-23.3a.mp4,stims/wedding-23.4a.mp4,stims/wedding-23.5.mp4,stimsday2details/egg23.png,stimsday2details/newegg18.png,stimsday2details/couple23.png,stimsday2details/newperson34.png,stimsday2details/gift23.png,stimsday2details/new34.png,stimsday2details/cn23.png,stimsday2details/n23.png,stimsday2details/ct23.png,stimsday2details/t23.png,0,9,9,9,,,,,,,,,,,,,,,,,,,,,,,,,,,,,,,,,,,,,,,,,,,,,,,,,,,,,,,,,,,,,,,,,,,,,,,,,4.0364451706409454e-05,None,2,1.0003371480852365,1468.3641388826072,None,1468.3641388826072,None,1468.3641388826072,None,1470.3473324524239,None,1,0.8854331662878394,1470.3473324524239,None,1470.3473324524239,None,1472.3472813488916,None,1472.3472813488916,None,1,0.8355019288137555,1472.3472813488916,None,2,1.0692405151203275,1474.3472601482645,None,1474.3472601482645,None,1474.3472601482645,None,1476.3473870856687,None,1476.3473870856687,None,1,0.8684830470010638,1476.3473870856687,None,1478.3473825836554,None,1478.3473825836554,None,1,1.402310324832797,1478.3473825836554,None,001,43,2020_Jan_28_1533,viewing,3.1.2,60.012114183721216,
north.png,stims/wedding-6.1a.mp4,stims/wedding-6.1b.mp4,stims/wedding-6.2b.mp4,stims/wedding-6.3b.mp4,stims/wedding-6.4b.mp4,stims/wedding-6.5.mp4,stimsday2details/newpainting17.png,stimsday2details/painting6.png,stimsday2details/newperson35.png,stimsday2details/couple6.png,stimsday2details/new35.png,stimsday2details/gift6.png,stimsday2details/cn6.png,stimsday2details/n6.png,stimsday2details/ct6.png,stimsday2details/t6.png,0,10,10,10,0,0,0,0,,,,,,,,,,,,,,,,,,,,,,,,,None,None,,,,,,,,,,,,,,,,,,,,,,,,,,,,,,,,,,,,,,,,,,,,,,,,,,,,,,,,,,,,,,,,,,,,,,,,,,,,,,,,,,,,,,,,,,,,,001,43,2020_Jan_28_1533,viewing,3.1.2,60.012114183721216,
north.png,stims/wedding-6.1a.mp4,stims/wedding-6.1b.mp4,stims/wedding-6.2b.mp4,stims/wedding-6.3b.mp4,stims/wedding-6.4b.mp4,stims/wedding-6.5.mp4,stimsday2details/newpainting17.png,stimsday2details/painting6.png,stimsday2details/newperson35.png,stimsday2details/couple6.png,stimsday2details/new35.png,stimsday2details/gift6.png,stimsday2details/cn6.png,stimsday2details/n6.png,stimsday2details/ct6.png,stimsday2details/t6.png,0,10,10,10,,,,,0,0,0,0,,,,,,,,,,,,,,,,,,,,,,,1480.580685308203,None,,,,,,,,,,,,,,,,,,,,,,,,,,,,,,,,,,,,,,,,,,,,,,,,,,,,,,,,,,,,,,,,,,,,,,,,,,,,,,,,,,,,,,,,,,,001,43,2020_Jan_28_1533,viewing,3.1.2,60.012114183721216,
north.png,stims/wedding-6.1a.mp4,stims/wedding-6.1b.mp4,stims/wedding-6.2b.mp4,stims/wedding-6.3b.mp4,stims/wedding-6.4b.mp4,stims/wedding-6.5.mp4,stimsday2details/newpainting17.png,stimsday2details/painting6.png,stimsday2details/newperson35.png,stimsday2details/couple6.png,stimsday2details/new35.png,stimsday2details/gift6.png,stimsday2details/cn6.png,stimsday2details/n6.png,stimsday2details/ct6.png,stimsday2details/t6.png,0,10,10,10,,,,,,,,,0,0,0,0,,,,,,,,,,,,,,,,,,,,,3.100584010593593,None,1490.9312854753807,1515.8302692677826,1515.8469239221886,None,1524.846623650752,None,1541.8464170983061,1564.8294557565823,1564.846319179982,None,1588.845870631747,None,,,,,,,,,,,,,,,,,,,,,,,,,,,,,,,,,,,,,,,,,,,,,,,,,,,,,,,,,,,,,,,,,,,,,,,,,,,,,001,43,2020_Jan_28_1533,viewing,3.1.2,60.012114183721216,
north.png,stims/wedding-6.1a.mp4,stims/wedding-6.1b.mp4,stims/wedding-6.2b.mp4,stims/wedding-6.3b.mp4,stims/wedding-6.4b.mp4,stims/wedding-6.5.mp4,stimsday2details/newpainting17.png,stimsday2details/painting6.png,stimsday2details/newperson35.png,stimsday2details/couple6.png,stimsday2details/new35.png,stimsday2details/gift6.png,stimsday2details/cn6.png,stimsday2details/n6.png,stimsday2details/ct6.png,stimsday2details/t6.png,0,10,10,10,,,,,,,,,,,,,0,0,0,0,,,,,,,,,,,,,,,,,,,,,,,,,,,,,,,None,None,None,None,None,None,None,None,None,None,None,None,None,None,None,None,None,None,None,,None,None,None,,None,None,,,,,,,,,,,,,,,,,,,,,,,,,,,,,,,,,,,,,,,,,,,,,,,,,,,001,43,2020_Jan_28_1533,viewing,3.1.2,60.012114183721216,
north.png,stims/wedding-6.1a.mp4,stims/wedding-6.1b.mp4,stims/wedding-6.2b.mp4,stims/wedding-6.3b.mp4,stims/wedding-6.4b.mp4,stims/wedding-6.5.mp4,stimsday2details/newpainting17.png,stimsday2details/painting6.png,stimsday2details/newperson35.png,stimsday2details/couple6.png,stimsday2details/new35.png,stimsday2details/gift6.png,stimsday2details/cn6.png,stimsday2details/n6.png,stimsday2details/ct6.png,stimsday2details/t6.png,0,10,10,10,,,,,,,,,,,,,,,,,,,,,,,,,,,,,,,,,,,,,,,,,,,,,,,,,,,,,,,,,,,,,,,,,,,,,,,,,3.176648169755936e-05,None,2,1.1523385867476463,1612.9623202746734,None,1612.9623202746734,None,1612.9623202746734,None,1614.945489906706,None,2,0.9854648420587182,1614.945489906706,None,1614.945489906706,None,1616.9454643977806,None,1616.9454643977806,None,2,0.9861689731478691,1616.9454643977806,None,2,1.968784806318581,1618.9456307142973,None,1618.9456307142973,None,1618.9456307142973,None,1620.94541528821,None,1620.94541528821,None,2,1.1524738762527704,1620.94541528821,None,1622.9453889941797,None,1622.9453889941797,None,1,1.3854815997183323,1622.9453889941797,None,001,43,2020_Jan_28_1533,viewing,3.1.2,60.012114183721216,
south.png,stims/wedding-22.1a.mp4,stims/wedding-22.1b.mp4,stims/wedding-22.2b.mp4,stims/wedding-22.3a.mp4,stims/wedding-22.4b.mp4,stims/wedding-22.5.mp4,stimsday2details/painting22.png,stimsday2details/newpainting18.png,stimsday2details/couple22.png,stimsday2details/newperson36.png,stimsday2details/gift22.png,stimsday2details/new36.png,stimsday2details/cn22.png,stimsday2details/n22.png,stimsday2details/ct22.png,stimsday2details/t22.png,0,11,11,11,0,0,0,0,,,,,,,,,,,,,,,,,,,,,,,,,1624.9453578144312,None,,,,,,,,,,,,,,,,,,,,,,,,,,,,,,,,,,,,,,,,,,,,,,,,,,,,,,,,,,,,,,,,,,,,,,,,,,,,,,,,,,,,,,,,,,,,,001,43,2020_Jan_28_1533,viewing,3.1.2,60.012114183721216,
south.png,stims/wedding-22.1a.mp4,stims/wedding-22.1b.mp4,stims/wedding-22.2b.mp4,stims/wedding-22.3a.mp4,stims/wedding-22.4b.mp4,stims/wedding-22.5.mp4,stimsday2details/painting22.png,stimsday2details/newpainting18.png,stimsday2details/couple22.png,stimsday2details/newperson36.png,stimsday2details/gift22.png,stimsday2details/new36.png,stimsday2details/cn22.png,stimsday2details/n22.png,stimsday2details/ct22.png,stimsday2details/t22.png,0,11,11,11,,,,,0,0,0,0,,,,,,,,,,,,,,,,,,,,,,,None,None,,,,,,,,,,,,,,,,,,,,,,,,,,,,,,,,,,,,,,,,,,,,,,,,,,,,,,,,,,,,,,,,,,,,,,,,,,,,,,,,,,,,,,,,,,,001,43,2020_Jan_28_1533,viewing,3.1.2,60.012114183721216,
south.png,stims/wedding-22.1a.mp4,stims/wedding-22.1b.mp4,stims/wedding-22.2b.mp4,stims/wedding-22.3a.mp4,stims/wedding-22.4b.mp4,stims/wedding-22.5.mp4,stimsday2details/painting22.png,stimsday2details/newpainting18.png,stimsday2details/couple22.png,stimsday2details/newperson36.png,stimsday2details/gift22.png,stimsday2details/new36.png,stimsday2details/cn22.png,stimsday2details/n22.png,stimsday2details/ct22.png,stimsday2details/t22.png,0,11,11,11,,,,,,,,,0,0,0,0,,,,,,,,,,,,,,,,,,,,,None,None,None,None,None,None,None,None,None,None,None,None,None,None,,,,,,,,,,,,,,,,,,,,,,,,,,,,,,,,,,,,,,,,,,,,,,,,,,,,,,,,,,,,,,,,,,,,,,,,,,,,,001,43,2020_Jan_28_1533,viewing,3.1.2,60.012114183721216,
south.png,stims/wedding-22.1a.mp4,stims/wedding-22.1b.mp4,stims/wedding-22.2b.mp4,stims/wedding-22.3a.mp4,stims/wedding-22.4b.mp4,stims/wedding-22.5.mp4,stimsday2details/painting22.png,stimsday2details/newpainting18.png,stimsday2details/couple22.png,stimsday2details/newperson36.png,stimsday2details/gift22.png,stimsday2details/new36.png,stimsday2details/cn22.png,stimsday2details/n22.png,stimsday2details/ct22.png,stimsday2details/t22.png,0,11,11,11,,,,,,,,,,,,,0,0,0,0,,,,,,,,,,,,,,,,,,,,,,,,,,,,,,,3.019823490642011,None,1639.0451864022762,1664.011576840654,1664.0283402763307,None,1673.0280922753736,None,1690.0278843250126,1694.0112943919376,1694.0278337858617,1717.011065470986,1717.0276819495484,1721.0107749067247,1721.0274309869856,None,1745.0272387200966,None,['1'],[3.4191537871956825],1689.027906444855,1694.0112943919376,['2'],[3.069057767279446],1716.0275586042553,1721.0107749067247,,,,,,,,,,,,,,,,,,,,,,,,,,,,,,,,,,,,,,,,,,,,,,,,,,,001,43,2020_Jan_28_1533,viewing,3.1.2,60.012114183721216,
south.png,stims/wedding-22.1a.mp4,stims/wedding-22.1b.mp4,stims/wedding-22.2b.mp4,stims/wedding-22.3a.mp4,stims/wedding-22.4b.mp4,stims/wedding-22.5.mp4,stimsday2details/painting22.png,stimsday2details/newpainting18.png,stimsday2details/couple22.png,stimsday2details/newperson36.png,stimsday2details/gift22.png,stimsday2details/new36.png,stimsday2details/cn22.png,stimsday2details/n22.png,stimsday2details/ct22.png,stimsday2details/t22.png,0,11,11,11,,,,,,,,,,,,,,,,,,,,,,,,,,,,,,,,,,,,,,,,,,,,,,,,,,,,,,,,,,,,,,,,,,,,,,,,,0.00010648742318153381,None,2,0.9852437311783433,1765.8105152649805,None,1765.8105152649805,None,1765.8105152649805,None,1767.793507461436,None,1,1.1854864479973912,1767.793507461436,None,1767.793507461436,None,1769.7934705242515,None,1769.7934705242515,None,1,1.0526603637263179,1769.7934705242515,None,2,1.5686343600973487,1771.793646541424,None,1771.793646541424,None,1771.793646541424,None,1773.7934925658628,None,1773.7934925658628,None,1,0.9854139620438218,1773.7934925658628,None,1775.7936209999025,None,1775.7936209999025,None,None,,1775.7936209999025,None,001,43,2020_Jan_28_1533,viewing,3.1.2,60.012114183721216,
