northOrSouth,stimFile1a,stimFile1b,stimFile2,stimFile3,stimFile4,stimFile5,Qeggpainting1,Qeggpainting2,Qcharacter1,Qcharacter2,Qgift1,Qgift2,Qname1,Qname2,Qtheme1,Qtheme2,trials.thisRepN,trials.thisTrialN,trials.thisN,trials.thisIndex,South.thisRepN,South.thisTrialN,South.thisN,South.thisIndex,North.thisRepN,North.thisTrialN,North.thisN,North.thisIndex,noQtrials.thisRepN,noQtrials.thisTrialN,noQtrials.thisN,noQtrials.thisIndex,Qtrials.thisRepN,Qtrials.thisTrialN,Qtrials.thisN,Qtrials.thisIndex,text.started,text.stopped,prep_trigger.keys,prep_trigger.rt,prep_trigger.started,prep_trigger.stopped,waiting.started,waiting.stopped,trigger.keys,trigger.rt,trigger.started,trigger.stopped,southCueImage.started,southCueImage.stopped,northCueImage.started,northCueImage.stopped,trialNoQs.started,trialNoQs.stopped,vid1a.started,vid1a.stopped,vid1b.started,vid1b.stopped,vid2.started,vid2.stopped,vid3.started,vid3.stopped,vid4.started,vid4.stopped,vid5.started,vid5.stopped,ISI2.started,ISI2.stopped,vid1a_q.started,vid1a_q.stopped,vid1b_q.started,vid1b_q.stopped,vid2_q.started,vid2_q.stopped,l2q.started,l2q.stopped,vid3_q.started,vid3_q.stopped,l3q.started,l3q.stopped,vid4_q.started,vid4_q.stopped,vid5_q.started,vid5_q.stopped,key_resp_2.keys,key_resp_2.rt,key_resp_2.started,key_resp_2.stopped,key_resp_3.keys,key_resp_3.rt,key_resp_3.started,key_resp_3.stopped,ISI7.started,ISI7.stopped,nameQresp.keys,nameQresp.rt,nameQresp.started,nameQresp.stopped,nameQ1.started,nameQ1.stopped,nameQ2.started,nameQ2.stopped,eggPainting1.started,eggPainting1.stopped,eggPaintingQresp.keys,eggPaintingQresp.rt,eggPaintingQresp.started,eggPaintingQresp.stopped,eggPainting2.started,eggPainting2.stopped,character1.started,character1.stopped,character2.started,character2.stopped,Qcharacter.keys,Qcharacter.rt,Qcharacter.started,Qcharacter.stopped,themeQresp.keys,themeQresp.rt,themeQresp.started,themeQresp.stopped,themeQ1.started,themeQ1.stopped,themeQ2.started,themeQ2.stopped,gift1.started,gift1.stopped,gift2.started,gift2.stopped,giftQresp.keys,giftQresp.rt,giftQresp.started,giftQresp.stopped,northorsouth1.started,northorsouth1.stopped,northorsouth2.started,northorsouth2.stopped,northOrSouthQ.keys,northOrSouthQ.started,northOrSouthQ.stopped,northOrSouthQ.rt,session,participant,date,expName,psychopyVersion,frameRate,
,,,,,,,,,,,,,,,,,,,,,,,,,,,,,,,,,,,,,6.7201538579538465,None,g,1.4557623360306025,6.7201538579538465,None,,,,,,,,,,,,,,,,,,,,,,,,,,,,,,,,,,,,,,,,,,,,,,,,,,,,,,,,,,,,,,,,,,,,,,,,,,,,,,,,,,,,,,,,,,,,,,,,,,,,,001,11,2019_Aug_23_1338,viewing,3.1.2,None,
,,,,,,,,,,,,,,,,,,,,,,,,,,,,,,,,,,,,,,,,,,,8.188603690825403,None,equal,23.56455908715725,8.188603690825403,None,,,,,,,,,,,,,,,,,,,,,,,,,,,,,,,,,,,,,,,,,,,,,,,,,,,,,,,,,,,,,,,,,,,,,,,,,,,,,,,,,,,,,,,,,,,,,,,001,11,2019_Aug_23_1338,viewing,3.1.2,None,
south.png,stims/wedding-34.1a.mp4,stims/wedding-34.1b.mp4,stims/wedding-34.2b.mp4,stims/wedding-34.3a.mp4,stims/wedding-34.4b.mp4,stims/wedding-34.5.mp4,stimsday2details/painting34.png,stimsday2details/newpainting13.png,stimsday2details/newperson25.png,stimsday2details/couple34.png,stimsday2details/new25.png,stimsday2details/gift34.png,stimsday2details/n34.png,stimsday2details/cn34.png,stimsday2details/ct34.png,stimsday2details/t34.png,0,0,0,0,0,0,0,0,,,,,,,,,,,,,,,,,,,,,,,,,31.78384926682338,None,,,,,,,,,,,,,,,,,,,,,,,,,,,,,,,,,,,,,,,,,,,,,,,,,,,,,,,,,,,,,,,,,,,,,,,,,,,,,,,,,,,,,,,,,,,,,001,11,2019_Aug_23_1338,viewing,3.1.2,None,
south.png,stims/wedding-34.1a.mp4,stims/wedding-34.1b.mp4,stims/wedding-34.2b.mp4,stims/wedding-34.3a.mp4,stims/wedding-34.4b.mp4,stims/wedding-34.5.mp4,stimsday2details/painting34.png,stimsday2details/newpainting13.png,stimsday2details/newperson25.png,stimsday2details/couple34.png,stimsday2details/new25.png,stimsday2details/gift34.png,stimsday2details/n34.png,stimsday2details/cn34.png,stimsday2details/ct34.png,stimsday2details/t34.png,0,0,0,0,,,,,0,0,0,0,,,,,,,,,,,,,,,,,,,,,,,None,None,,,,,,,,,,,,,,,,,,,,,,,,,,,,,,,,,,,,,,,,,,,,,,,,,,,,,,,,,,,,,,,,,,,,,,,,,,,,,,,,,,,,,,,,,,,001,11,2019_Aug_23_1338,viewing,3.1.2,None,
south.png,stims/wedding-34.1a.mp4,stims/wedding-34.1b.mp4,stims/wedding-34.2b.mp4,stims/wedding-34.3a.mp4,stims/wedding-34.4b.mp4,stims/wedding-34.5.mp4,stimsday2details/painting34.png,stimsday2details/newpainting13.png,stimsday2details/newperson25.png,stimsday2details/couple34.png,stimsday2details/new25.png,stimsday2details/gift34.png,stimsday2details/n34.png,stimsday2details/cn34.png,stimsday2details/ct34.png,stimsday2details/t34.png,0,0,0,0,,,,,,,,,0,0,0,0,,,,,,,,,,,,,,,,,,,,,None,None,None,None,None,None,None,None,None,None,None,None,None,None,,,,,,,,,,,,,,,,,,,,,,,,,,,,,,,,,,,,,,,,,,,,,,,,,,,,,,,,,,,,,,,,,,,,,,,,,,,,,001,11,2019_Aug_23_1338,viewing,3.1.2,None,
south.png,stims/wedding-34.1a.mp4,stims/wedding-34.1b.mp4,stims/wedding-34.2b.mp4,stims/wedding-34.3a.mp4,stims/wedding-34.4b.mp4,stims/wedding-34.5.mp4,stimsday2details/painting34.png,stimsday2details/newpainting13.png,stimsday2details/newperson25.png,stimsday2details/couple34.png,stimsday2details/new25.png,stimsday2details/gift34.png,stimsday2details/n34.png,stimsday2details/cn34.png,stimsday2details/ct34.png,stimsday2details/t34.png,0,0,0,0,,,,,,,,,,,,,0,0,0,0,,,,,,,,,,,,,,,,,,,,,,,,,,,,,,,2.6931993570178747,None,44.550057326909155,69.85380473779514,69.86716760089621,78.85412410786375,78.86715482873842,None,95.85231389384717,99.85016602370888,99.85016602370888,None,122.84886461403221,126.85395928565413,126.86614184174687,None,150.86561679001898,None,"['2', '2']","[55.3088910789229, 3.2994108721613884]",94.85266849584877,99.85016602370888,['1'],[3.839717663358897],121.86575203994289,126.85395928565413,,,,,,,,,,,,,,,,,,,,,,,,,,,,,,,,,,,,,,,,,,,,,,,,,,,001,11,2019_Aug_23_1338,viewing,3.1.2,None,
south.png,stims/wedding-34.1a.mp4,stims/wedding-34.1b.mp4,stims/wedding-34.2b.mp4,stims/wedding-34.3a.mp4,stims/wedding-34.4b.mp4,stims/wedding-34.5.mp4,stimsday2details/painting34.png,stimsday2details/newpainting13.png,stimsday2details/newperson25.png,stimsday2details/couple34.png,stimsday2details/new25.png,stimsday2details/gift34.png,stimsday2details/n34.png,stimsday2details/cn34.png,stimsday2details/ct34.png,stimsday2details/t34.png,0,0,0,0,,,,,,,,,,,,,,,,,,,,,,,,,,,,,,,,,,,,,,,,,,,,,,,,,,,,,,,,,,,,,,,,,,,,,,,,,2.3565255105495453e-05,None,1,1.4311758279800415,171.21918689180166,None,171.21918689180166,None,171.21918689180166,None,173.2145817456767,None,1,0.7358613046817482,173.2145817456767,None,173.2145817456767,None,175.21935278596357,None,175.21935278596357,None,2,0.9030624516308308,175.21935278596357,None,2,0.8728566439822316,177.21574282366782,None,177.21574282366782,None,177.21574282366782,None,179.2151626148261,None,179.2151626148261,None,2,0.8182479040697217,179.2151626148261,None,181.21585622197017,None,181.21585622197017,None,None,181.21585622197017,None,,001,11,2019_Aug_23_1338,viewing,3.1.2,None,
north.png,stims/wedding-23.1a.mp4,stims/wedding-23.1b.mp4,stims/wedding-23.2b.mp4,stims/wedding-23.3b.mp4,stims/wedding-23.4b.mp4,stims/wedding-23.5.mp4,stimsday2details/newpainting14.png,stimsday2details/painting23.png,stimsday2details/couple23.png,stimsday2details/newperson26.png,stimsday2details/new26.png,stimsday2details/gift23.png,stimsday2details/cn23.png,stimsday2details/n23.png,stimsday2details/t23.png,stimsday2details/ct23.png,0,1,1,1,0,0,0,0,,,,,,,,,,,,,,,,,,,,,,,,,None,None,,,,,,,,,,,,,,,,,,,,,,,,,,,,,,,,,,,,,,,,,,,,,,,,,,,,,,,,,,,,,,,,,,,,,,,,,,,,,,,,,,,,,,,,,,,,,001,11,2019_Aug_23_1338,viewing,3.1.2,None,
north.png,stims/wedding-23.1a.mp4,stims/wedding-23.1b.mp4,stims/wedding-23.2b.mp4,stims/wedding-23.3b.mp4,stims/wedding-23.4b.mp4,stims/wedding-23.5.mp4,stimsday2details/newpainting14.png,stimsday2details/painting23.png,stimsday2details/couple23.png,stimsday2details/newperson26.png,stimsday2details/new26.png,stimsday2details/gift23.png,stimsday2details/cn23.png,stimsday2details/n23.png,stimsday2details/t23.png,stimsday2details/ct23.png,0,1,1,1,,,,,0,0,0,0,,,,,,,,,,,,,,,,,,,,,,,183.26572414301336,None,,,,,,,,,,,,,,,,,,,,,,,,,,,,,,,,,,,,,,,,,,,,,,,,,,,,,,,,,,,,,,,,,,,,,,,,,,,,,,,,,,,,,,,,,,,001,11,2019_Aug_23_1338,viewing,3.1.2,None,
north.png,stims/wedding-23.1a.mp4,stims/wedding-23.1b.mp4,stims/wedding-23.2b.mp4,stims/wedding-23.3b.mp4,stims/wedding-23.4b.mp4,stims/wedding-23.5.mp4,stimsday2details/newpainting14.png,stimsday2details/painting23.png,stimsday2details/couple23.png,stimsday2details/newperson26.png,stimsday2details/new26.png,stimsday2details/gift23.png,stimsday2details/cn23.png,stimsday2details/n23.png,stimsday2details/t23.png,stimsday2details/ct23.png,0,1,1,1,,,,,,,,,0,0,0,0,,,,,,,,,,,,,,,,,,,,,2.971010818146169,None,193.3150798380375,218.31448193406686,218.33108110167086,None,227.33204540191218,None,244.33067612582818,267.31816968880594,267.3313272050582,None,291.32997854379937,None,,,,,,,,,,,,,,,,,,,,,,,,,,,,,,,,,,,,,,,,,,,,,,,,,,,,,,,,,,,,,,,,,,,,,,,,,,,,,001,11,2019_Aug_23_1338,viewing,3.1.2,None,
north.png,stims/wedding-23.1a.mp4,stims/wedding-23.1b.mp4,stims/wedding-23.2b.mp4,stims/wedding-23.3b.mp4,stims/wedding-23.4b.mp4,stims/wedding-23.5.mp4,stimsday2details/newpainting14.png,stimsday2details/painting23.png,stimsday2details/couple23.png,stimsday2details/newperson26.png,stimsday2details/new26.png,stimsday2details/gift23.png,stimsday2details/cn23.png,stimsday2details/n23.png,stimsday2details/t23.png,stimsday2details/ct23.png,0,1,1,1,,,,,,,,,,,,,0,0,0,0,,,,,,,,,,,,,,,,,,,,,,,,,,,,,,,None,None,None,None,None,None,None,None,None,None,None,None,None,None,None,None,None,None,None,,None,None,None,,None,None,,,,,,,,,,,,,,,,,,,,,,,,,,,,,,,,,,,,,,,,,,,,,,,,,,,001,11,2019_Aug_23_1338,viewing,3.1.2,None,
north.png,stims/wedding-23.1a.mp4,stims/wedding-23.1b.mp4,stims/wedding-23.2b.mp4,stims/wedding-23.3b.mp4,stims/wedding-23.4b.mp4,stims/wedding-23.5.mp4,stimsday2details/newpainting14.png,stimsday2details/painting23.png,stimsday2details/couple23.png,stimsday2details/newperson26.png,stimsday2details/new26.png,stimsday2details/gift23.png,stimsday2details/cn23.png,stimsday2details/n23.png,stimsday2details/t23.png,stimsday2details/ct23.png,0,1,1,1,,,,,,,,,,,,,,,,,,,,,,,,,,,,,,,,,,,,,,,,,,,,,,,,,,,,,,,,,,,,,,,,,,,,,,,,,3.664707764983177e-05,None,2,0.9512547757476568,315.3970985659398,None,315.3970985659398,None,315.3970985659398,None,317.39702107803896,None,2,0.6526284469291568,317.39702107803896,None,317.39702107803896,None,319.3965546870604,None,319.3965546870604,None,1,0.7858339129015803,319.3965546870604,None,1,1.0358821391128004,321.39651754079387,None,321.39651754079387,None,321.39651754079387,None,323.3965778867714,None,323.3965778867714,None,2,1.1020459532737732,323.3965778867714,None,325.3961849869229,None,325.3961849869229,None,1,325.3961849869229,None,0.7901116069406271,001,11,2019_Aug_23_1338,viewing,3.1.2,None,
north.png,stims/wedding-28.1a.mp4,stims/wedding-28.1b.mp4,stims/wedding-28.2a.mp4,stims/wedding-28.3a.mp4,stims/wedding-28.4a.mp4,stims/wedding-28.5.mp4,stimsday2details/egg28.png,stimsday2details/newegg13.png,stimsday2details/newperson27.png,stimsday2details/couple28.png,stimsday2details/gift28.png,stimsday2details/new27.png,stimsday2details/cn28.png,stimsday2details/n28.png,stimsday2details/t28.png,stimsday2details/ct28.png,0,2,2,2,0,0,0,0,,,,,,,,,,,,,,,,,,,,,,,,,None,None,,,,,,,,,,,,,,,,,,,,,,,,,,,,,,,,,,,,,,,,,,,,,,,,,,,,,,,,,,,,,,,,,,,,,,,,,,,,,,,,,,,,,,,,,,,,,001,11,2019_Aug_23_1338,viewing,3.1.2,None,
north.png,stims/wedding-28.1a.mp4,stims/wedding-28.1b.mp4,stims/wedding-28.2a.mp4,stims/wedding-28.3a.mp4,stims/wedding-28.4a.mp4,stims/wedding-28.5.mp4,stimsday2details/egg28.png,stimsday2details/newegg13.png,stimsday2details/newperson27.png,stimsday2details/couple28.png,stimsday2details/gift28.png,stimsday2details/new27.png,stimsday2details/cn28.png,stimsday2details/n28.png,stimsday2details/t28.png,stimsday2details/ct28.png,0,2,2,2,,,,,0,0,0,0,,,,,,,,,,,,,,,,,,,,,,,327.4639675770886,None,,,,,,,,,,,,,,,,,,,,,,,,,,,,,,,,,,,,,,,,,,,,,,,,,,,,,,,,,,,,,,,,,,,,,,,,,,,,,,,,,,,,,,,,,,,001,11,2019_Aug_23_1338,viewing,3.1.2,None,
north.png,stims/wedding-28.1a.mp4,stims/wedding-28.1b.mp4,stims/wedding-28.2a.mp4,stims/wedding-28.3a.mp4,stims/wedding-28.4a.mp4,stims/wedding-28.5.mp4,stimsday2details/egg28.png,stimsday2details/newegg13.png,stimsday2details/newperson27.png,stimsday2details/couple28.png,stimsday2details/gift28.png,stimsday2details/new27.png,stimsday2details/cn28.png,stimsday2details/n28.png,stimsday2details/t28.png,stimsday2details/ct28.png,0,2,2,2,,,,,,,,,0,0,0,0,,,,,,,,,,,,,,,,,,,,,2.8721510991454124,None,337.4305510879494,362.5478058308363,362.5478058308363,None,371.5458023468964,388.54571456694975,388.54571456694975,411.54608798166737,411.54608798166737,435.54585260665044,435.54585260665044,None,,,,,,,,,,,,,,,,,,,,,,,,,,,,,,,,,,,,,,,,,,,,,,,,,,,,,,,,,,,,,,,,,,,,,,,,,,,,,001,11,2019_Aug_23_1338,viewing,3.1.2,None,
north.png,stims/wedding-28.1a.mp4,stims/wedding-28.1b.mp4,stims/wedding-28.2a.mp4,stims/wedding-28.3a.mp4,stims/wedding-28.4a.mp4,stims/wedding-28.5.mp4,stimsday2details/egg28.png,stimsday2details/newegg13.png,stimsday2details/newperson27.png,stimsday2details/couple28.png,stimsday2details/gift28.png,stimsday2details/new27.png,stimsday2details/cn28.png,stimsday2details/n28.png,stimsday2details/t28.png,stimsday2details/ct28.png,0,2,2,2,,,,,,,,,,,,,0,0,0,0,,,,,,,,,,,,,,,,,,,,,,,,,,,,,,,None,None,None,None,None,None,None,None,None,None,None,None,None,None,None,None,None,None,None,,None,None,None,,None,None,,,,,,,,,,,,,,,,,,,,,,,,,,,,,,,,,,,,,,,,,,,,,,,,,,,001,11,2019_Aug_23_1338,viewing,3.1.2,None,
north.png,stims/wedding-28.1a.mp4,stims/wedding-28.1b.mp4,stims/wedding-28.2a.mp4,stims/wedding-28.3a.mp4,stims/wedding-28.4a.mp4,stims/wedding-28.5.mp4,stimsday2details/egg28.png,stimsday2details/newegg13.png,stimsday2details/newperson27.png,stimsday2details/couple28.png,stimsday2details/gift28.png,stimsday2details/new27.png,stimsday2details/cn28.png,stimsday2details/n28.png,stimsday2details/t28.png,stimsday2details/ct28.png,0,2,2,2,,,,,,,,,,,,,,,,,,,,,,,,,,,,,,,,,,,,,,,,,,,,,,,,,,,,,,,,,,,,,,,,,,,,,,,,,8.791312575340271e-05,None,2,0.9383432222530246,459.69672923674807,None,459.69672923674807,None,459.69672923674807,None,461.6957582337782,None,1,0.7182564097456634,461.6957582337782,None,461.6957582337782,None,463.6954040527344,None,463.6954040527344,None,2,0.9507650276646018,463.6954040527344,None,1,0.9740031529217958,465.69435805268586,None,465.69435805268586,None,465.69435805268586,None,467.694453057833,None,467.694453057833,None,1,1.373659293167293,467.694453057833,None,469.69525761390105,None,469.69525761390105,None,1,469.69525761390105,None,0.822023599408567,001,11,2019_Aug_23_1338,viewing,3.1.2,None,
south.png,stims/wedding-19.1a.mp4,stims/wedding-19.1b.mp4,stims/wedding-19.2a.mp4,stims/wedding-19.3b.mp4,stims/wedding-19.4a.mp4,stims/wedding-19.5.mp4,stimsday2details/egg19.png,stimsday2details/newegg14.png,stimsday2details/newperson28.png,stimsday2details/couple19.png,stimsday2details/new28.png,stimsday2details/gift19.png,stimsday2details/n19.png,stimsday2details/cn19.png,stimsday2details/t19.png,stimsday2details/ct19.png,0,3,3,3,0,0,0,0,,,,,,,,,,,,,,,,,,,,,,,,,471.69518628297374,None,,,,,,,,,,,,,,,,,,,,,,,,,,,,,,,,,,,,,,,,,,,,,,,,,,,,,,,,,,,,,,,,,,,,,,,,,,,,,,,,,,,,,,,,,,,,,001,11,2019_Aug_23_1338,viewing,3.1.2,None,
south.png,stims/wedding-19.1a.mp4,stims/wedding-19.1b.mp4,stims/wedding-19.2a.mp4,stims/wedding-19.3b.mp4,stims/wedding-19.4a.mp4,stims/wedding-19.5.mp4,stimsday2details/egg19.png,stimsday2details/newegg14.png,stimsday2details/newperson28.png,stimsday2details/couple19.png,stimsday2details/new28.png,stimsday2details/gift19.png,stimsday2details/n19.png,stimsday2details/cn19.png,stimsday2details/t19.png,stimsday2details/ct19.png,0,3,3,3,,,,,0,0,0,0,,,,,,,,,,,,,,,,,,,,,,,None,None,,,,,,,,,,,,,,,,,,,,,,,,,,,,,,,,,,,,,,,,,,,,,,,,,,,,,,,,,,,,,,,,,,,,,,,,,,,,,,,,,,,,,,,,,,,001,11,2019_Aug_23_1338,viewing,3.1.2,None,
south.png,stims/wedding-19.1a.mp4,stims/wedding-19.1b.mp4,stims/wedding-19.2a.mp4,stims/wedding-19.3b.mp4,stims/wedding-19.4a.mp4,stims/wedding-19.5.mp4,stimsday2details/egg19.png,stimsday2details/newegg14.png,stimsday2details/newperson28.png,stimsday2details/couple19.png,stimsday2details/new28.png,stimsday2details/gift19.png,stimsday2details/n19.png,stimsday2details/cn19.png,stimsday2details/t19.png,stimsday2details/ct19.png,0,3,3,3,,,,,,,,,0,0,0,0,,,,,,,,,,,,,,,,,,,,,3.058754403144121,None,481.9610433038324,506.87904341798276,506.89389431197196,None,515.8947736099362,532.8818913740106,532.8947931439616,555.8814762900583,555.8945500659756,None,579.894658583682,None,,,,,,,,,,,,,,,,,,,,,,,,,,,,,,,,,,,,,,,,,,,,,,,,,,,,,,,,,,,,,,,,,,,,,,,,,,,,,001,11,2019_Aug_23_1338,viewing,3.1.2,None,
south.png,stims/wedding-19.1a.mp4,stims/wedding-19.1b.mp4,stims/wedding-19.2a.mp4,stims/wedding-19.3b.mp4,stims/wedding-19.4a.mp4,stims/wedding-19.5.mp4,stimsday2details/egg19.png,stimsday2details/newegg14.png,stimsday2details/newperson28.png,stimsday2details/couple19.png,stimsday2details/new28.png,stimsday2details/gift19.png,stimsday2details/n19.png,stimsday2details/cn19.png,stimsday2details/t19.png,stimsday2details/ct19.png,0,3,3,3,,,,,,,,,,,,,0,0,0,0,,,,,,,,,,,,,,,,,,,,,,,,,,,,,,,None,None,None,None,None,None,None,None,None,None,None,None,None,None,None,None,None,None,None,,None,None,None,,None,None,,,,,,,,,,,,,,,,,,,,,,,,,,,,,,,,,,,,,,,,,,,,,,,,,,,001,11,2019_Aug_23_1338,viewing,3.1.2,None,
south.png,stims/wedding-19.1a.mp4,stims/wedding-19.1b.mp4,stims/wedding-19.2a.mp4,stims/wedding-19.3b.mp4,stims/wedding-19.4a.mp4,stims/wedding-19.5.mp4,stimsday2details/egg19.png,stimsday2details/newegg14.png,stimsday2details/newperson28.png,stimsday2details/couple19.png,stimsday2details/new28.png,stimsday2details/gift19.png,stimsday2details/n19.png,stimsday2details/cn19.png,stimsday2details/t19.png,stimsday2details/ct19.png,0,3,3,3,,,,,,,,,,,,,,,,,,,,,,,,,,,,,,,,,,,,,,,,,,,,,,,,,,,,,,,,,,,,,,,,,,,,,,,,,3.8724858313798904e-05,None,1,1.0299621811136603,604.1321370587684,None,604.1321370587684,None,604.1321370587684,None,606.1257822890766,None,1,0.6347878649830818,606.1257822890766,None,606.1257822890766,None,608.1271901740693,None,608.1271901740693,None,2,0.6893370347097516,608.1271901740693,None,1,0.6854401198215783,610.1258808276616,None,610.1258808276616,None,610.1258808276616,None,612.1265696049668,None,612.1265696049668,None,2,0.6682378216646612,612.1265696049668,None,614.1302518299781,None,614.1302518299781,None,2,614.1302518299781,None,0.868628241121769,001,11,2019_Aug_23_1338,viewing,3.1.2,None,
south.png,stims/wedding-29.1a.mp4,stims/wedding-29.1b.mp4,stims/wedding-29.2a.mp4,stims/wedding-29.3b.mp4,stims/wedding-29.4a.mp4,stims/wedding-29.5.mp4,stimsday2details/egg29.png,stimsday2details/newegg15.png,stimsday2details/newperson29.png,stimsday2details/couple29.png,stimsday2details/gift29.png,stimsday2details/new29.png,stimsday2details/n29.png,stimsday2details/cn29.png,stimsday2details/t29.png,stimsday2details/ct29.png,0,4,4,4,0,0,0,0,,,,,,,,,,,,,,,,,,,,,,,,,616.1257911478169,None,,,,,,,,,,,,,,,,,,,,,,,,,,,,,,,,,,,,,,,,,,,,,,,,,,,,,,,,,,,,,,,,,,,,,,,,,,,,,,,,,,,,,,,,,,,,,001,11,2019_Aug_23_1338,viewing,3.1.2,None,
south.png,stims/wedding-29.1a.mp4,stims/wedding-29.1b.mp4,stims/wedding-29.2a.mp4,stims/wedding-29.3b.mp4,stims/wedding-29.4a.mp4,stims/wedding-29.5.mp4,stimsday2details/egg29.png,stimsday2details/newegg15.png,stimsday2details/newperson29.png,stimsday2details/couple29.png,stimsday2details/gift29.png,stimsday2details/new29.png,stimsday2details/n29.png,stimsday2details/cn29.png,stimsday2details/t29.png,stimsday2details/ct29.png,0,4,4,4,,,,,0,0,0,0,,,,,,,,,,,,,,,,,,,,,,,None,None,,,,,,,,,,,,,,,,,,,,,,,,,,,,,,,,,,,,,,,,,,,,,,,,,,,,,,,,,,,,,,,,,,,,,,,,,,,,,,,,,,,,,,,,,,,001,11,2019_Aug_23_1338,viewing,3.1.2,None,
south.png,stims/wedding-29.1a.mp4,stims/wedding-29.1b.mp4,stims/wedding-29.2a.mp4,stims/wedding-29.3b.mp4,stims/wedding-29.4a.mp4,stims/wedding-29.5.mp4,stimsday2details/egg29.png,stimsday2details/newegg15.png,stimsday2details/newperson29.png,stimsday2details/couple29.png,stimsday2details/gift29.png,stimsday2details/new29.png,stimsday2details/n29.png,stimsday2details/cn29.png,stimsday2details/t29.png,stimsday2details/ct29.png,0,4,4,4,,,,,,,,,0,0,0,0,,,,,,,,,,,,,,,,,,,,,2.949289700947702,None,626.3257273277268,651.3598849610426,651.3754307297058,None,660.376125510782,None,677.3752951640636,700.3586506447755,700.3749359850772,None,724.3747644019313,None,,,,,,,,,,,,,,,,,,,,,,,,,,,,,,,,,,,,,,,,,,,,,,,,,,,,,,,,,,,,,,,,,,,,,,,,,,,,,001,11,2019_Aug_23_1338,viewing,3.1.2,None,
south.png,stims/wedding-29.1a.mp4,stims/wedding-29.1b.mp4,stims/wedding-29.2a.mp4,stims/wedding-29.3b.mp4,stims/wedding-29.4a.mp4,stims/wedding-29.5.mp4,stimsday2details/egg29.png,stimsday2details/newegg15.png,stimsday2details/newperson29.png,stimsday2details/couple29.png,stimsday2details/gift29.png,stimsday2details/new29.png,stimsday2details/n29.png,stimsday2details/cn29.png,stimsday2details/t29.png,stimsday2details/ct29.png,0,4,4,4,,,,,,,,,,,,,0,0,0,0,,,,,,,,,,,,,,,,,,,,,,,,,,,,,,,None,None,None,None,None,None,None,None,None,None,None,None,None,None,None,None,None,None,None,,None,None,None,,None,None,,,,,,,,,,,,,,,,,,,,,,,,,,,,,,,,,,,,,,,,,,,,,,,,,,,001,11,2019_Aug_23_1338,viewing,3.1.2,None,
south.png,stims/wedding-29.1a.mp4,stims/wedding-29.1b.mp4,stims/wedding-29.2a.mp4,stims/wedding-29.3b.mp4,stims/wedding-29.4a.mp4,stims/wedding-29.5.mp4,stimsday2details/egg29.png,stimsday2details/newegg15.png,stimsday2details/newperson29.png,stimsday2details/couple29.png,stimsday2details/gift29.png,stimsday2details/new29.png,stimsday2details/n29.png,stimsday2details/cn29.png,stimsday2details/t29.png,stimsday2details/ct29.png,0,4,4,4,,,,,,,,,,,,,,,,,,,,,,,,,,,,,,,,,,,,,,,,,,,,,,,,,,,,,,,,,,,,,,,,,,,,,,,,,3.700004890561104e-05,None,1,0.7893959591165185,747.8584841769189,None,747.8584841769189,None,747.8584841769189,None,749.8576962049119,None,1,0.6029078587889671,749.8576962049119,None,749.8576962049119,None,751.857437221799,None,751.857437221799,None,2,0.7356157177127898,751.857437221799,None,1,0.6231795363128185,753.8575083869509,None,753.8575083869509,None,753.8575083869509,None,755.8584841936827,None,755.8584841936827,None,1,1.2893391749821603,755.8584841936827,None,757.8584554679692,None,757.8584554679692,None,2,757.8584554679692,None,1.268696904182434,001,11,2019_Aug_23_1338,viewing,3.1.2,None,
north.png,stims/wedding-6.1a.mp4,stims/wedding-6.1b.mp4,stims/wedding-6.2a.mp4,stims/wedding-6.3a.mp4,stims/wedding-6.4a.mp4,stims/wedding-6.5.mp4,stimsday2details/egg6.png,stimsday2details/newegg16.png,stimsday2details/couple6.png,stimsday2details/newperson30.png,stimsday2details/gift6.png,stimsday2details/new30.png,stimsday2details/cn6.png,stimsday2details/n6.png,stimsday2details/t6.png,stimsday2details/ct6.png,0,5,5,5,0,0,0,0,,,,,,,,,,,,,,,,,,,,,,,,,None,None,,,,,,,,,,,,,,,,,,,,,,,,,,,,,,,,,,,,,,,,,,,,,,,,,,,,,,,,,,,,,,,,,,,,,,,,,,,,,,,,,,,,,,,,,,,,,001,11,2019_Aug_23_1338,viewing,3.1.2,None,
north.png,stims/wedding-6.1a.mp4,stims/wedding-6.1b.mp4,stims/wedding-6.2a.mp4,stims/wedding-6.3a.mp4,stims/wedding-6.4a.mp4,stims/wedding-6.5.mp4,stimsday2details/egg6.png,stimsday2details/newegg16.png,stimsday2details/couple6.png,stimsday2details/newperson30.png,stimsday2details/gift6.png,stimsday2details/new30.png,stimsday2details/cn6.png,stimsday2details/n6.png,stimsday2details/t6.png,stimsday2details/ct6.png,0,5,5,5,,,,,0,0,0,0,,,,,,,,,,,,,,,,,,,,,,,759.9918601308018,None,,,,,,,,,,,,,,,,,,,,,,,,,,,,,,,,,,,,,,,,,,,,,,,,,,,,,,,,,,,,,,,,,,,,,,,,,,,,,,,,,,,,,,,,,,,001,11,2019_Aug_23_1338,viewing,3.1.2,None,
north.png,stims/wedding-6.1a.mp4,stims/wedding-6.1b.mp4,stims/wedding-6.2a.mp4,stims/wedding-6.3a.mp4,stims/wedding-6.4a.mp4,stims/wedding-6.5.mp4,stimsday2details/egg6.png,stimsday2details/newegg16.png,stimsday2details/couple6.png,stimsday2details/newperson30.png,stimsday2details/gift6.png,stimsday2details/new30.png,stimsday2details/cn6.png,stimsday2details/n6.png,stimsday2details/t6.png,stimsday2details/ct6.png,0,5,5,5,,,,,,,,,0,0,0,0,,,,,,,,,,,,,,,,,,,,,2.977890674956143,None,770.1243794276379,795.1404330707155,795.1404330707155,None,804.1403881930746,821.1405024728738,821.1405024728738,844.1402950910851,844.1402950910851,868.140583938919,868.140583938919,None,,,,,,,,,,,,,,,,,,,,,,,,,,,,,,,,,,,,,,,,,,,,,,,,,,,,,,,,,,,,,,,,,,,,,,,,,,,,,001,11,2019_Aug_23_1338,viewing,3.1.2,None,
north.png,stims/wedding-6.1a.mp4,stims/wedding-6.1b.mp4,stims/wedding-6.2a.mp4,stims/wedding-6.3a.mp4,stims/wedding-6.4a.mp4,stims/wedding-6.5.mp4,stimsday2details/egg6.png,stimsday2details/newegg16.png,stimsday2details/couple6.png,stimsday2details/newperson30.png,stimsday2details/gift6.png,stimsday2details/new30.png,stimsday2details/cn6.png,stimsday2details/n6.png,stimsday2details/t6.png,stimsday2details/ct6.png,0,5,5,5,,,,,,,,,,,,,0,0,0,0,,,,,,,,,,,,,,,,,,,,,,,,,,,,,,,None,None,None,None,None,None,None,None,None,None,None,None,None,None,None,None,None,None,None,,None,None,None,,None,None,,,,,,,,,,,,,,,,,,,,,,,,,,,,,,,,,,,,,,,,,,,,,,,,,,,001,11,2019_Aug_23_1338,viewing,3.1.2,None,
north.png,stims/wedding-6.1a.mp4,stims/wedding-6.1b.mp4,stims/wedding-6.2a.mp4,stims/wedding-6.3a.mp4,stims/wedding-6.4a.mp4,stims/wedding-6.5.mp4,stimsday2details/egg6.png,stimsday2details/newegg16.png,stimsday2details/couple6.png,stimsday2details/newperson30.png,stimsday2details/gift6.png,stimsday2details/new30.png,stimsday2details/cn6.png,stimsday2details/n6.png,stimsday2details/t6.png,stimsday2details/ct6.png,0,5,5,5,,,,,,,,,,,,,,,,,,,,,,,,,,,,,,,,,,,,,,,,,,,,,,,,,,,,,,,,,,,,,,,,,,,,,,,,,4.3700914829969406e-05,None,2,1.1221113791689277,892.1070977128111,None,892.1070977128111,None,892.1070977128111,None,894.1057587200776,None,1,0.8235669671557844,894.1057587200776,None,894.1057587200776,None,896.1057763439603,None,896.1057763439603,None,1,0.7684187670238316,896.1057763439603,None,1,0.7687730696052313,898.1066685598344,None,898.1066685598344,None,898.1066685598344,None,900.1062010056339,None,900.1062010056339,None,1,0.6395428371615708,900.1062010056339,None,902.1104992050678,None,902.1104992050678,None,1,902.1104992050678,None,1.073770514689386,001,11,2019_Aug_23_1338,viewing,3.1.2,None,
north.png,stims/wedding-38.1a.mp4,stims/wedding-38.1b.mp4,stims/wedding-38.2a.mp4,stims/wedding-38.3a.mp4,stims/wedding-38.4a.mp4,stims/wedding-38.5.mp4,stimsday2details/newegg17.png,stimsday2details/egg38.png,stimsday2details/newperson31.png,stimsday2details/couple38.png,stimsday2details/new31.png,stimsday2details/gift38.png,stimsday2details/n38.png,stimsday2details/cn38.png,stimsday2details/ct38.png,stimsday2details/t38.png,0,6,6,6,0,0,0,0,,,,,,,,,,,,,,,,,,,,,,,,,None,None,,,,,,,,,,,,,,,,,,,,,,,,,,,,,,,,,,,,,,,,,,,,,,,,,,,,,,,,,,,,,,,,,,,,,,,,,,,,,,,,,,,,,,,,,,,,,001,11,2019_Aug_23_1338,viewing,3.1.2,None,
north.png,stims/wedding-38.1a.mp4,stims/wedding-38.1b.mp4,stims/wedding-38.2a.mp4,stims/wedding-38.3a.mp4,stims/wedding-38.4a.mp4,stims/wedding-38.5.mp4,stimsday2details/newegg17.png,stimsday2details/egg38.png,stimsday2details/newperson31.png,stimsday2details/couple38.png,stimsday2details/new31.png,stimsday2details/gift38.png,stimsday2details/n38.png,stimsday2details/cn38.png,stimsday2details/ct38.png,stimsday2details/t38.png,0,6,6,6,,,,,0,0,0,0,,,,,,,,,,,,,,,,,,,,,,,904.261449994985,None,,,,,,,,,,,,,,,,,,,,,,,,,,,,,,,,,,,,,,,,,,,,,,,,,,,,,,,,,,,,,,,,,,,,,,,,,,,,,,,,,,,,,,,,,,,001,11,2019_Aug_23_1338,viewing,3.1.2,None,
north.png,stims/wedding-38.1a.mp4,stims/wedding-38.1b.mp4,stims/wedding-38.2a.mp4,stims/wedding-38.3a.mp4,stims/wedding-38.4a.mp4,stims/wedding-38.5.mp4,stimsday2details/newegg17.png,stimsday2details/egg38.png,stimsday2details/newperson31.png,stimsday2details/couple38.png,stimsday2details/new31.png,stimsday2details/gift38.png,stimsday2details/n38.png,stimsday2details/cn38.png,stimsday2details/ct38.png,stimsday2details/t38.png,0,6,6,6,,,,,,,,,0,0,0,0,,,,,,,,,,,,,,,,,,,,,2.877289865165949,None,914.5726294126362,939.6896235900931,939.6896235900931,None,948.6897898470052,965.6882578856312,965.6882578856312,988.6879804716446,988.6879804716446,None,1012.6881227139384,None,,,,,,,,,,,,,,,,,,,,,,,,,,,,,,,,,,,,,,,,,,,,,,,,,,,,,,,,,,,,,,,,,,,,,,,,,,,,,001,11,2019_Aug_23_1338,viewing,3.1.2,None,
north.png,stims/wedding-38.1a.mp4,stims/wedding-38.1b.mp4,stims/wedding-38.2a.mp4,stims/wedding-38.3a.mp4,stims/wedding-38.4a.mp4,stims/wedding-38.5.mp4,stimsday2details/newegg17.png,stimsday2details/egg38.png,stimsday2details/newperson31.png,stimsday2details/couple38.png,stimsday2details/new31.png,stimsday2details/gift38.png,stimsday2details/n38.png,stimsday2details/cn38.png,stimsday2details/ct38.png,stimsday2details/t38.png,0,6,6,6,,,,,,,,,,,,,0,0,0,0,,,,,,,,,,,,,,,,,,,,,,,,,,,,,,,None,None,None,None,None,None,None,None,None,None,None,None,None,None,None,None,None,None,None,,None,None,None,,None,None,,,,,,,,,,,,,,,,,,,,,,,,,,,,,,,,,,,,,,,,,,,,,,,,,,,001,11,2019_Aug_23_1338,viewing,3.1.2,None,
north.png,stims/wedding-38.1a.mp4,stims/wedding-38.1b.mp4,stims/wedding-38.2a.mp4,stims/wedding-38.3a.mp4,stims/wedding-38.4a.mp4,stims/wedding-38.5.mp4,stimsday2details/newegg17.png,stimsday2details/egg38.png,stimsday2details/newperson31.png,stimsday2details/couple38.png,stimsday2details/new31.png,stimsday2details/gift38.png,stimsday2details/n38.png,stimsday2details/cn38.png,stimsday2details/ct38.png,stimsday2details/t38.png,0,6,6,6,,,,,,,,,,,,,,,,,,,,,,,,,,,,,,,,,,,,,,,,,,,,,,,,,,,,,,,,,,,,,,,,,,,,,,,,,3.70279885828495e-05,None,1,0.8242388372309506,1036.5706569296308,None,1036.5706569296308,None,1036.5706569296308,None,1038.5547845200635,None,2,0.8227218613028526,1038.5547845200635,None,1038.5547845200635,None,1040.554017684888,None,1040.554017684888,None,2,0.7529710922390223,1040.554017684888,None,2,0.9019612739793956,1042.5548416199163,None,1042.5548416199163,None,1042.5548416199163,None,1044.5547775970772,None,1044.5547775970772,None,2,0.8518705498427153,1044.5547775970772,None,1046.553955940064,None,1046.553955940064,None,1,1046.553955940064,None,1.489940027706325,001,11,2019_Aug_23_1338,viewing,3.1.2,None,
south.png,stims/wedding-2.1a.mp4,stims/wedding-2.1b.mp4,stims/wedding-2.2a.mp4,stims/wedding-2.3b.mp4,stims/wedding-2.4a.mp4,stims/wedding-2.5.mp4,stimsday2details/newegg18.png,stimsday2details/egg2.png,stimsday2details/newperson32.png,stimsday2details/couple2.png,stimsday2details/gift2.png,stimsday2details/new32.png,stimsday2details/cn2.png,stimsday2details/n2.png,stimsday2details/ct2.png,stimsday2details/t2.png,0,7,7,7,0,0,0,0,,,,,,,,,,,,,,,,,,,,,,,,,1048.554656764958,None,,,,,,,,,,,,,,,,,,,,,,,,,,,,,,,,,,,,,,,,,,,,,,,,,,,,,,,,,,,,,,,,,,,,,,,,,,,,,,,,,,,,,,,,,,,,,001,11,2019_Aug_23_1338,viewing,3.1.2,None,
south.png,stims/wedding-2.1a.mp4,stims/wedding-2.1b.mp4,stims/wedding-2.2a.mp4,stims/wedding-2.3b.mp4,stims/wedding-2.4a.mp4,stims/wedding-2.5.mp4,stimsday2details/newegg18.png,stimsday2details/egg2.png,stimsday2details/newperson32.png,stimsday2details/couple2.png,stimsday2details/gift2.png,stimsday2details/new32.png,stimsday2details/cn2.png,stimsday2details/n2.png,stimsday2details/ct2.png,stimsday2details/t2.png,0,7,7,7,,,,,0,0,0,0,,,,,,,,,,,,,,,,,,,,,,,None,None,,,,,,,,,,,,,,,,,,,,,,,,,,,,,,,,,,,,,,,,,,,,,,,,,,,,,,,,,,,,,,,,,,,,,,,,,,,,,,,,,,,,,,,,,,,001,11,2019_Aug_23_1338,viewing,3.1.2,None,
south.png,stims/wedding-2.1a.mp4,stims/wedding-2.1b.mp4,stims/wedding-2.2a.mp4,stims/wedding-2.3b.mp4,stims/wedding-2.4a.mp4,stims/wedding-2.5.mp4,stimsday2details/newegg18.png,stimsday2details/egg2.png,stimsday2details/newperson32.png,stimsday2details/couple2.png,stimsday2details/gift2.png,stimsday2details/new32.png,stimsday2details/cn2.png,stimsday2details/n2.png,stimsday2details/ct2.png,stimsday2details/t2.png,0,7,7,7,,,,,,,,,0,0,0,0,,,,,,,,,,,,,,,,,,,,,2.7730819531716406,None,1058.703803349752,None,1083.9379420978948,None,1092.9371077986434,None,1109.9375480110757,1132.9206448220648,1132.9370565940626,None,1156.9368224218488,None,,,,,,,,,,,,,,,,,,,,,,,,,,,,,,,,,,,,,,,,,,,,,,,,,,,,,,,,,,,,,,,,,,,,,,,,,,,,,001,11,2019_Aug_23_1338,viewing,3.1.2,None,
south.png,stims/wedding-2.1a.mp4,stims/wedding-2.1b.mp4,stims/wedding-2.2a.mp4,stims/wedding-2.3b.mp4,stims/wedding-2.4a.mp4,stims/wedding-2.5.mp4,stimsday2details/newegg18.png,stimsday2details/egg2.png,stimsday2details/newperson32.png,stimsday2details/couple2.png,stimsday2details/gift2.png,stimsday2details/new32.png,stimsday2details/cn2.png,stimsday2details/n2.png,stimsday2details/ct2.png,stimsday2details/t2.png,0,7,7,7,,,,,,,,,,,,,0,0,0,0,,,,,,,,,,,,,,,,,,,,,,,,,,,,,,,None,None,None,None,None,None,None,None,None,None,None,None,None,None,None,None,None,None,None,,None,None,None,,None,None,,,,,,,,,,,,,,,,,,,,,,,,,,,,,,,,,,,,,,,,,,,,,,,,,,,001,11,2019_Aug_23_1338,viewing,3.1.2,None,
south.png,stims/wedding-2.1a.mp4,stims/wedding-2.1b.mp4,stims/wedding-2.2a.mp4,stims/wedding-2.3b.mp4,stims/wedding-2.4a.mp4,stims/wedding-2.5.mp4,stimsday2details/newegg18.png,stimsday2details/egg2.png,stimsday2details/newperson32.png,stimsday2details/couple2.png,stimsday2details/gift2.png,stimsday2details/new32.png,stimsday2details/cn2.png,stimsday2details/n2.png,stimsday2details/ct2.png,stimsday2details/t2.png,0,7,7,7,,,,,,,,,,,,,,,,,,,,,,,,,,,,,,,,,,,,,,,,,,,,,,,,,,,,,,,,,,,,,,,,,,,,,,,,,4.1014980524778366e-05,None,2,0.9728603926487267,1180.8363254810683,None,1180.8363254810683,None,1180.8363254810683,None,1182.8193530617282,None,2,1.1520765428431332,1182.8193530617282,None,1182.8193530617282,None,1184.8193827420473,None,1184.8193827420473,None,2,0.7896369621157646,1184.8193827420473,None,2,1.4224499836564064,1186.818563838955,None,1186.818563838955,None,1186.818563838955,None,1188.8197131496854,None,1188.8197131496854,None,1,0.8522340604104102,1188.8197131496854,None,1190.818501171656,None,1190.818501171656,None,2,1190.818501171656,None,1.5737397652119398,001,11,2019_Aug_23_1338,viewing,3.1.2,None,
south.png,stims/wedding-17.1a.mp4,stims/wedding-17.1b.mp4,stims/wedding-17.2b.mp4,stims/wedding-17.3a.mp4,stims/wedding-17.4b.mp4,stims/wedding-17.5.mp4,stimsday2details/newpainting15.png,stimsday2details/painting17.png,stimsday2details/couple17.png,stimsday2details/newperson33.png,stimsday2details/new33.png,stimsday2details/gift17.png,stimsday2details/n17.png,stimsday2details/cn17.png,stimsday2details/ct17.png,stimsday2details/t17.png,0,8,8,8,0,0,0,0,,,,,,,,,,,,,,,,,,,,,,,,,1192.8191399318166,None,,,,,,,,,,,,,,,,,,,,,,,,,,,,,,,,,,,,,,,,,,,,,,,,,,,,,,,,,,,,,,,,,,,,,,,,,,,,,,,,,,,,,,,,,,,,,001,11,2019_Aug_23_1338,viewing,3.1.2,None,
south.png,stims/wedding-17.1a.mp4,stims/wedding-17.1b.mp4,stims/wedding-17.2b.mp4,stims/wedding-17.3a.mp4,stims/wedding-17.4b.mp4,stims/wedding-17.5.mp4,stimsday2details/newpainting15.png,stimsday2details/painting17.png,stimsday2details/couple17.png,stimsday2details/newperson33.png,stimsday2details/new33.png,stimsday2details/gift17.png,stimsday2details/n17.png,stimsday2details/cn17.png,stimsday2details/ct17.png,stimsday2details/t17.png,0,8,8,8,,,,,0,0,0,0,,,,,,,,,,,,,,,,,,,,,,,None,None,,,,,,,,,,,,,,,,,,,,,,,,,,,,,,,,,,,,,,,,,,,,,,,,,,,,,,,,,,,,,,,,,,,,,,,,,,,,,,,,,,,,,,,,,,,001,11,2019_Aug_23_1338,viewing,3.1.2,None,
south.png,stims/wedding-17.1a.mp4,stims/wedding-17.1b.mp4,stims/wedding-17.2b.mp4,stims/wedding-17.3a.mp4,stims/wedding-17.4b.mp4,stims/wedding-17.5.mp4,stimsday2details/newpainting15.png,stimsday2details/painting17.png,stimsday2details/couple17.png,stimsday2details/newperson33.png,stimsday2details/new33.png,stimsday2details/gift17.png,stimsday2details/n17.png,stimsday2details/cn17.png,stimsday2details/ct17.png,stimsday2details/t17.png,0,8,8,8,,,,,,,,,0,0,0,0,,,,,,,,,,,,,,,,,,,,,2.8435249510221183,None,1203.0858451956883,None,1228.2357482207008,None,1237.2360409679823,None,1254.2355818557553,None,1277.23610360967,None,1301.2339054327458,None,,,,,,,,,,,,,,,,,,,,,,,,,,,,,,,,,,,,,,,,,,,,,,,,,,,,,,,,,,,,,,,,,,,,,,,,,,,,,001,11,2019_Aug_23_1338,viewing,3.1.2,None,
south.png,stims/wedding-17.1a.mp4,stims/wedding-17.1b.mp4,stims/wedding-17.2b.mp4,stims/wedding-17.3a.mp4,stims/wedding-17.4b.mp4,stims/wedding-17.5.mp4,stimsday2details/newpainting15.png,stimsday2details/painting17.png,stimsday2details/couple17.png,stimsday2details/newperson33.png,stimsday2details/new33.png,stimsday2details/gift17.png,stimsday2details/n17.png,stimsday2details/cn17.png,stimsday2details/ct17.png,stimsday2details/t17.png,0,8,8,8,,,,,,,,,,,,,0,0,0,0,,,,,,,,,,,,,,,,,,,,,,,,,,,,,,,None,None,None,None,None,None,None,None,None,None,None,None,None,None,None,None,None,None,None,,None,None,None,,None,None,,,,,,,,,,,,,,,,,,,,,,,,,,,,,,,,,,,,,,,,,,,,,,,,,,,001,11,2019_Aug_23_1338,viewing,3.1.2,None,
south.png,stims/wedding-17.1a.mp4,stims/wedding-17.1b.mp4,stims/wedding-17.2b.mp4,stims/wedding-17.3a.mp4,stims/wedding-17.4b.mp4,stims/wedding-17.5.mp4,stimsday2details/newpainting15.png,stimsday2details/painting17.png,stimsday2details/couple17.png,stimsday2details/newperson33.png,stimsday2details/new33.png,stimsday2details/gift17.png,stimsday2details/n17.png,stimsday2details/cn17.png,stimsday2details/ct17.png,stimsday2details/t17.png,0,8,8,8,,,,,,,,,,,,,,,,,,,,,,,,,,,,,,,,,,,,,,,,,,,,,,,,,,,,,,,,,,,,,,,,,,,,,,,,,3.924034535884857e-05,None,1,1.0518067590892315,1325.084456244018,None,1325.084456244018,None,1325.084456244018,None,1327.0833855397068,None,2,0.8026109291240573,1327.0833855397068,None,1327.0833855397068,None,1329.0846715499647,None,1329.0846715499647,None,1,1.0509853111580014,1329.0846715499647,None,2,1.0177944097667933,1331.084523461759,None,1331.084523461759,None,1331.084523461759,None,1333.0845554498956,None,1333.0845554498956,None,2,0.8017455991357565,1333.0845554498956,None,1335.0846324190497,None,1335.0846324190497,None,None,1335.0846324190497,None,,001,11,2019_Aug_23_1338,viewing,3.1.2,None,
north.png,stims/wedding-22.1a.mp4,stims/wedding-22.1b.mp4,stims/wedding-22.2b.mp4,stims/wedding-22.3b.mp4,stims/wedding-22.4b.mp4,stims/wedding-22.5.mp4,stimsday2details/newpainting16.png,stimsday2details/painting22.png,stimsday2details/newperson34.png,stimsday2details/couple22.png,stimsday2details/new34.png,stimsday2details/gift22.png,stimsday2details/n22.png,stimsday2details/cn22.png,stimsday2details/t22.png,stimsday2details/ct22.png,0,9,9,9,0,0,0,0,,,,,,,,,,,,,,,,,,,,,,,,,None,None,,,,,,,,,,,,,,,,,,,,,,,,,,,,,,,,,,,,,,,,,,,,,,,,,,,,,,,,,,,,,,,,,,,,,,,,,,,,,,,,,,,,,,,,,,,,,001,11,2019_Aug_23_1338,viewing,3.1.2,None,
north.png,stims/wedding-22.1a.mp4,stims/wedding-22.1b.mp4,stims/wedding-22.2b.mp4,stims/wedding-22.3b.mp4,stims/wedding-22.4b.mp4,stims/wedding-22.5.mp4,stimsday2details/newpainting16.png,stimsday2details/painting22.png,stimsday2details/newperson34.png,stimsday2details/couple22.png,stimsday2details/new34.png,stimsday2details/gift22.png,stimsday2details/n22.png,stimsday2details/cn22.png,stimsday2details/t22.png,stimsday2details/ct22.png,0,9,9,9,,,,,0,0,0,0,,,,,,,,,,,,,,,,,,,,,,,1337.4673537360504,None,,,,,,,,,,,,,,,,,,,,,,,,,,,,,,,,,,,,,,,,,,,,,,,,,,,,,,,,,,,,,,,,,,,,,,,,,,,,,,,,,,,,,,,,,,,001,11,2019_Aug_23_1338,viewing,3.1.2,None,
north.png,stims/wedding-22.1a.mp4,stims/wedding-22.1b.mp4,stims/wedding-22.2b.mp4,stims/wedding-22.3b.mp4,stims/wedding-22.4b.mp4,stims/wedding-22.5.mp4,stimsday2details/newpainting16.png,stimsday2details/painting22.png,stimsday2details/newperson34.png,stimsday2details/couple22.png,stimsday2details/new34.png,stimsday2details/gift22.png,stimsday2details/n22.png,stimsday2details/cn22.png,stimsday2details/t22.png,stimsday2details/ct22.png,0,9,9,9,,,,,,,,,0,0,0,0,,,,,,,,,,,,,,,,,,,,,2.9544732817448676,None,1347.6669935160317,1372.7005372359417,1372.7166848368943,None,1381.7169594480656,None,1398.7183337849565,1421.688140546903,1421.7043013009243,None,1445.7002569306642,None,,,,,,,,,,,,,,,,,,,,,,,,,,,,,,,,,,,,,,,,,,,,,,,,,,,,,,,,,,,,,,,,,,,,,,,,,,,,,001,11,2019_Aug_23_1338,viewing,3.1.2,None,
north.png,stims/wedding-22.1a.mp4,stims/wedding-22.1b.mp4,stims/wedding-22.2b.mp4,stims/wedding-22.3b.mp4,stims/wedding-22.4b.mp4,stims/wedding-22.5.mp4,stimsday2details/newpainting16.png,stimsday2details/painting22.png,stimsday2details/newperson34.png,stimsday2details/couple22.png,stimsday2details/new34.png,stimsday2details/gift22.png,stimsday2details/n22.png,stimsday2details/cn22.png,stimsday2details/t22.png,stimsday2details/ct22.png,0,9,9,9,,,,,,,,,,,,,0,0,0,0,,,,,,,,,,,,,,,,,,,,,,,,,,,,,,,None,None,None,None,None,None,None,None,None,None,None,None,None,None,None,None,None,None,None,,None,None,None,,None,None,,,,,,,,,,,,,,,,,,,,,,,,,,,,,,,,,,,,,,,,,,,,,,,,,,,001,11,2019_Aug_23_1338,viewing,3.1.2,None,
north.png,stims/wedding-22.1a.mp4,stims/wedding-22.1b.mp4,stims/wedding-22.2b.mp4,stims/wedding-22.3b.mp4,stims/wedding-22.4b.mp4,stims/wedding-22.5.mp4,stimsday2details/newpainting16.png,stimsday2details/painting22.png,stimsday2details/newperson34.png,stimsday2details/couple22.png,stimsday2details/new34.png,stimsday2details/gift22.png,stimsday2details/n22.png,stimsday2details/cn22.png,stimsday2details/t22.png,stimsday2details/ct22.png,0,9,9,9,,,,,,,,,,,,,,,,,,,,,,,,,,,,,,,,,,,,,,,,,,,,,,,,,,,,,,,,,,,,,,,,,,,,,,,,,4.1930004954338074e-05,None,1,0.8180845412425697,1469.6329085677862,None,1469.6329085677862,None,1469.6329085677862,None,1471.6149313268252,None,2,1.6733700609765947,1471.6149313268252,None,1471.6149313268252,None,1473.6155707710423,None,1473.6155707710423,None,2,0.7525917487218976,1473.6155707710423,None,1,0.831038239877671,1475.6197826736607,None,1475.6197826736607,None,1475.6197826736607,None,1477.619817334693,None,1477.619817334693,None,2,1.0303993779234588,1477.619817334693,None,1479.6199930566363,None,1479.6199930566363,None,1,1479.6199930566363,None,1.114697110839188,001,11,2019_Aug_23_1338,viewing,3.1.2,None,
north.png,stims/wedding-1.1a.mp4,stims/wedding-1.1b.mp4,stims/wedding-1.2b.mp4,stims/wedding-1.3b.mp4,stims/wedding-1.4b.mp4,stims/wedding-1.5.mp4,stimsday2details/painting1.png,stimsday2details/newpainting17.png,stimsday2details/couple1.png,stimsday2details/newperson35.png,stimsday2details/gift1.png,stimsday2details/new35.png,stimsday2details/cn1.png,stimsday2details/n1.png,stimsday2details/ct1.png,stimsday2details/t1.png,0,10,10,10,0,0,0,0,,,,,,,,,,,,,,,,,,,,,,,,,None,None,,,,,,,,,,,,,,,,,,,,,,,,,,,,,,,,,,,,,,,,,,,,,,,,,,,,,,,,,,,,,,,,,,,,,,,,,,,,,,,,,,,,,,,,,,,,,001,11,2019_Aug_23_1338,viewing,3.1.2,None,
north.png,stims/wedding-1.1a.mp4,stims/wedding-1.1b.mp4,stims/wedding-1.2b.mp4,stims/wedding-1.3b.mp4,stims/wedding-1.4b.mp4,stims/wedding-1.5.mp4,stimsday2details/painting1.png,stimsday2details/newpainting17.png,stimsday2details/couple1.png,stimsday2details/newperson35.png,stimsday2details/gift1.png,stimsday2details/new35.png,stimsday2details/cn1.png,stimsday2details/n1.png,stimsday2details/ct1.png,stimsday2details/t1.png,0,10,10,10,,,,,0,0,0,0,,,,,,,,,,,,,,,,,,,,,,,1481.865425975062,None,,,,,,,,,,,,,,,,,,,,,,,,,,,,,,,,,,,,,,,,,,,,,,,,,,,,,,,,,,,,,,,,,,,,,,,,,,,,,,,,,,,,,,,,,,,001,11,2019_Aug_23_1338,viewing,3.1.2,None,
north.png,stims/wedding-1.1a.mp4,stims/wedding-1.1b.mp4,stims/wedding-1.2b.mp4,stims/wedding-1.3b.mp4,stims/wedding-1.4b.mp4,stims/wedding-1.5.mp4,stimsday2details/painting1.png,stimsday2details/newpainting17.png,stimsday2details/couple1.png,stimsday2details/newperson35.png,stimsday2details/gift1.png,stimsday2details/new35.png,stimsday2details/cn1.png,stimsday2details/n1.png,stimsday2details/ct1.png,stimsday2details/t1.png,0,10,10,10,,,,,,,,,0,0,0,0,,,,,,,,,,,,,,,,,,,,,2.8965574647299945,None,1492.031423181761,1517.1155945267528,1517.1155945267528,None,1526.1319177718833,None,1543.115601427853,1566.1309717847034,1566.147356019821,1590.118539761752,1590.1316013149917,None,,,,,,,,,,,,,,,,,,,,,,,,,,,,,,,,,,,,,,,,,,,,,,,,,,,,,,,,,,,,,,,,,,,,,,,,,,,,,001,11,2019_Aug_23_1338,viewing,3.1.2,None,
north.png,stims/wedding-1.1a.mp4,stims/wedding-1.1b.mp4,stims/wedding-1.2b.mp4,stims/wedding-1.3b.mp4,stims/wedding-1.4b.mp4,stims/wedding-1.5.mp4,stimsday2details/painting1.png,stimsday2details/newpainting17.png,stimsday2details/couple1.png,stimsday2details/newperson35.png,stimsday2details/gift1.png,stimsday2details/new35.png,stimsday2details/cn1.png,stimsday2details/n1.png,stimsday2details/ct1.png,stimsday2details/t1.png,0,10,10,10,,,,,,,,,,,,,0,0,0,0,,,,,,,,,,,,,,,,,,,,,,,,,,,,,,,None,None,None,None,None,None,None,None,None,None,None,None,None,None,None,None,None,None,None,,None,None,None,,None,None,,,,,,,,,,,,,,,,,,,,,,,,,,,,,,,,,,,,,,,,,,,,,,,,,,,001,11,2019_Aug_23_1338,viewing,3.1.2,None,
north.png,stims/wedding-1.1a.mp4,stims/wedding-1.1b.mp4,stims/wedding-1.2b.mp4,stims/wedding-1.3b.mp4,stims/wedding-1.4b.mp4,stims/wedding-1.5.mp4,stimsday2details/painting1.png,stimsday2details/newpainting17.png,stimsday2details/couple1.png,stimsday2details/newperson35.png,stimsday2details/gift1.png,stimsday2details/new35.png,stimsday2details/cn1.png,stimsday2details/n1.png,stimsday2details/ct1.png,stimsday2details/t1.png,0,10,10,10,,,,,,,,,,,,,,,,,,,,,,,,,,,,,,,,,,,,,,,,,,,,,,,,,,,,,,,,,,,,,,,,,,,,,,,,,2.6301946491003036e-05,None,2,1.0736260847188532,1614.1476001148112,None,1614.1476001148112,None,1614.1476001148112,None,1616.1308465008624,None,1,0.8179793800227344,1616.1308465008624,None,1616.1308465008624,None,1618.1301337187178,None,1618.1301337187178,None,1,1.2520959912799299,1618.1301337187178,None,2,1.180116516072303,1620.1358740907162,None,1620.1358740907162,None,1620.1358740907162,None,1622.1309058819897,None,1622.1309058819897,None,1,0.8514549401588738,1622.1309058819897,None,1624.1297734207474,None,1624.1297734207474,None,1,1624.1297734207474,None,1.102662061341107,001,11,2019_Aug_23_1338,viewing,3.1.2,None,
south.png,stims/wedding-20.1a.mp4,stims/wedding-20.1b.mp4,stims/wedding-20.2b.mp4,stims/wedding-20.3a.mp4,stims/wedding-20.4b.mp4,stims/wedding-20.5.mp4,stimsday2details/newpainting18.png,stimsday2details/painting20.png,stimsday2details/newperson36.png,stimsday2details/couple20.png,stimsday2details/gift20.png,stimsday2details/new36.png,stimsday2details/cn20.png,stimsday2details/n20.png,stimsday2details/t20.png,stimsday2details/ct20.png,0,11,11,11,0,0,0,0,,,,,,,,,,,,,,,,,,,,,,,,,1626.1308561698534,None,,,,,,,,,,,,,,,,,,,,,,,,,,,,,,,,,,,,,,,,,,,,,,,,,,,,,,,,,,,,,,,,,,,,,,,,,,,,,,,,,,,,,,,,,,,,,001,11,2019_Aug_23_1338,viewing,3.1.2,None,
south.png,stims/wedding-20.1a.mp4,stims/wedding-20.1b.mp4,stims/wedding-20.2b.mp4,stims/wedding-20.3a.mp4,stims/wedding-20.4b.mp4,stims/wedding-20.5.mp4,stimsday2details/newpainting18.png,stimsday2details/painting20.png,stimsday2details/newperson36.png,stimsday2details/couple20.png,stimsday2details/gift20.png,stimsday2details/new36.png,stimsday2details/cn20.png,stimsday2details/n20.png,stimsday2details/t20.png,stimsday2details/ct20.png,0,11,11,11,,,,,0,0,0,0,,,,,,,,,,,,,,,,,,,,,,,None,None,,,,,,,,,,,,,,,,,,,,,,,,,,,,,,,,,,,,,,,,,,,,,,,,,,,,,,,,,,,,,,,,,,,,,,,,,,,,,,,,,,,,,,,,,,,001,11,2019_Aug_23_1338,viewing,3.1.2,None,
south.png,stims/wedding-20.1a.mp4,stims/wedding-20.1b.mp4,stims/wedding-20.2b.mp4,stims/wedding-20.3a.mp4,stims/wedding-20.4b.mp4,stims/wedding-20.5.mp4,stimsday2details/newpainting18.png,stimsday2details/painting20.png,stimsday2details/newperson36.png,stimsday2details/couple20.png,stimsday2details/gift20.png,stimsday2details/new36.png,stimsday2details/cn20.png,stimsday2details/n20.png,stimsday2details/t20.png,stimsday2details/ct20.png,0,11,11,11,,,,,,,,,0,0,0,0,,,,,,,,,,,,,,,,,,,,,None,None,None,None,None,None,None,None,None,None,None,None,None,None,,,,,,,,,,,,,,,,,,,,,,,,,,,,,,,,,,,,,,,,,,,,,,,,,,,,,,,,,,,,,,,,,,,,,,,,,,,,,001,11,2019_Aug_23_1338,viewing,3.1.2,None,
south.png,stims/wedding-20.1a.mp4,stims/wedding-20.1b.mp4,stims/wedding-20.2b.mp4,stims/wedding-20.3a.mp4,stims/wedding-20.4b.mp4,stims/wedding-20.5.mp4,stimsday2details/newpainting18.png,stimsday2details/painting20.png,stimsday2details/newperson36.png,stimsday2details/couple20.png,stimsday2details/gift20.png,stimsday2details/new36.png,stimsday2details/cn20.png,stimsday2details/n20.png,stimsday2details/t20.png,stimsday2details/ct20.png,0,11,11,11,,,,,,,,,,,,,0,0,0,0,,,,,,,,,,,,,,,,,,,,,,,,,,,,,,,2.739317314699292,None,1639.462968755979,1664.7012016419321,1664.7133352877572,None,1673.7127968757413,None,1690.7164964070544,1694.7006474300288,1694.71806382481,1717.696218878962,1717.7119195200503,1721.6965410667472,1721.7129182587378,None,1745.7115502576344,None,"['2', '1']","[3.4731329577043653, 4.772784432861954]",1689.713331776671,1694.7006474300288,['2'],[4.3510861257091165],1716.7129521598108,1721.6965410667472,,,,,,,,,,,,,,,,,,,,,,,,,,,,,,,,,,,,,,,,,,,,,,,,,,,001,11,2019_Aug_23_1338,viewing,3.1.2,None,
south.png,stims/wedding-20.1a.mp4,stims/wedding-20.1b.mp4,stims/wedding-20.2b.mp4,stims/wedding-20.3a.mp4,stims/wedding-20.4b.mp4,stims/wedding-20.5.mp4,stimsday2details/newpainting18.png,stimsday2details/painting20.png,stimsday2details/newperson36.png,stimsday2details/couple20.png,stimsday2details/gift20.png,stimsday2details/new36.png,stimsday2details/cn20.png,stimsday2details/n20.png,stimsday2details/t20.png,stimsday2details/ct20.png,0,11,11,11,,,,,,,,,,,,,,,,,,,,,,,,,,,,,,,,,,,,,,,,,,,,,,,,,,,,,,,,,,,,,,,,,,,,,,,,,3.441423177719116e-05,None,2,0.8860208690166473,1765.6453563557006,None,1765.6453563557006,None,1765.6453563557006,None,1767.6281930427067,None,2,1.1197455418296158,1767.6281930427067,None,1767.6281930427067,None,1769.6322139226831,None,1769.6322139226831,None,2,1.0492526101879776,1769.6322139226831,None,None,,1771.62800861476,None,1771.62800861476,None,1771.62800861476,None,1773.627896418795,None,1773.627896418795,None,1,0.7228029919788241,1773.627896418795,None,1775.628230260685,None,1775.628230260685,None,2,1775.628230260685,None,1.4692046991549432,001,11,2019_Aug_23_1338,viewing,3.1.2,None,
