northOrSouth,stimFile1a,stimFile1b,stimFile2,stimFile3,stimFile4,stimFile5,Qeggpainting1,Qeggpainting2,Qcharacter1,Qcharacter2,Qgift1,Qgift2,Qname1,Qname2,Qtheme1,Qtheme2,trials.thisRepN,trials.thisTrialN,trials.thisN,trials.thisIndex,South.thisRepN,South.thisTrialN,South.thisN,South.thisIndex,North.thisRepN,North.thisTrialN,North.thisN,North.thisIndex,noQtrials.thisRepN,noQtrials.thisTrialN,noQtrials.thisN,noQtrials.thisIndex,Qtrials.thisRepN,Qtrials.thisTrialN,Qtrials.thisN,Qtrials.thisIndex,text.started,text.stopped,prep_trigger.keys,prep_trigger.rt,prep_trigger.started,prep_trigger.stopped,waiting.started,waiting.stopped,trigger.keys,trigger.rt,trigger.started,trigger.stopped,southCueImage.started,southCueImage.stopped,northCueImage.started,northCueImage.stopped,trialNoQs.started,trialNoQs.stopped,vid1a.started,vid1a.stopped,vid1b.started,vid1b.stopped,vid2.started,vid2.stopped,vid3.started,vid3.stopped,vid4.started,vid4.stopped,vid5.started,vid5.stopped,ISI2.started,ISI2.stopped,vid1a_q.started,vid1a_q.stopped,vid1b_q.started,vid1b_q.stopped,vid2_q.started,vid2_q.stopped,l2q.started,l2q.stopped,vid3_q.started,vid3_q.stopped,l3q.started,l3q.stopped,vid4_q.started,vid4_q.stopped,vid5_q.started,vid5_q.stopped,key_resp_2.keys,key_resp_2.rt,key_resp_2.started,key_resp_2.stopped,key_resp_3.keys,key_resp_3.rt,key_resp_3.started,key_resp_3.stopped,ISI7.started,ISI7.stopped,nameQresp.keys,nameQresp.rt,nameQresp.started,nameQresp.stopped,nameQ1.started,nameQ1.stopped,nameQ2.started,nameQ2.stopped,eggPainting1.started,eggPainting1.stopped,eggPaintingQresp.keys,eggPaintingQresp.rt,eggPaintingQresp.started,eggPaintingQresp.stopped,eggPainting2.started,eggPainting2.stopped,character1.started,character1.stopped,character2.started,character2.stopped,Qcharacter.keys,Qcharacter.rt,Qcharacter.started,Qcharacter.stopped,themeQresp.keys,themeQresp.rt,themeQresp.started,themeQresp.stopped,themeQ1.started,themeQ1.stopped,themeQ2.started,themeQ2.stopped,gift1.started,gift1.stopped,gift2.started,gift2.stopped,giftQresp.keys,giftQresp.rt,giftQresp.started,giftQresp.stopped,northorsouth1.started,northorsouth1.stopped,northorsouth2.started,northorsouth2.stopped,northOrSouthQ.keys,northOrSouthQ.rt,northOrSouthQ.started,northOrSouthQ.stopped,session,participant,date,expName,psychopyVersion,frameRate,
,,,,,,,,,,,,,,,,,,,,,,,,,,,,,,,,,,,,,9.72314793523401,None,g,0.338045135140419,9.72314793523401,None,,,,,,,,,,,,,,,,,,,,,,,,,,,,,,,,,,,,,,,,,,,,,,,,,,,,,,,,,,,,,,,,,,,,,,,,,,,,,,,,,,,,,,,,,,,,,,,,,,,,,001,34,2020_Jan_08_0935,viewing,3.1.2,59.94832306332808,
,,,,,,,,,,,,,,,,,,,,,,,,,,,,,,,,,,,,,,,,,,,10.073759839870036,None,equal,17.672609196975827,10.073759839870036,None,,,,,,,,,,,,,,,,,,,,,,,,,,,,,,,,,,,,,,,,,,,,,,,,,,,,,,,,,,,,,,,,,,,,,,,,,,,,,,,,,,,,,,,,,,,,,,,001,34,2020_Jan_08_0935,viewing,3.1.2,59.94832306332808,
south.png,stims/wedding-28.1a.mp4,stims/wedding-28.1b.mp4,stims/wedding-28.2a.mp4,stims/wedding-28.3b.mp4,stims/wedding-28.4a.mp4,stims/wedding-28.5.mp4,stimsday2details/egg28.png,stimsday2details/newegg13.png,stimsday2details/couple28.png,stimsday2details/newperson25.png,stimsday2details/new25.png,stimsday2details/gift28.png,stimsday2details/cn28.png,stimsday2details/n28.png,stimsday2details/ct28.png,stimsday2details/t28.png,0,0,0,0,0,0,0,0,,,,,,,,,,,,,,,,,,,,,,,,,27.8607134828344,None,,,,,,,,,,,,,,,,,,,,,,,,,,,,,,,,,,,,,,,,,,,,,,,,,,,,,,,,,,,,,,,,,,,,,,,,,,,,,,,,,,,,,,,,,,,,,001,34,2020_Jan_08_0935,viewing,3.1.2,59.94832306332808,
south.png,stims/wedding-28.1a.mp4,stims/wedding-28.1b.mp4,stims/wedding-28.2a.mp4,stims/wedding-28.3b.mp4,stims/wedding-28.4a.mp4,stims/wedding-28.5.mp4,stimsday2details/egg28.png,stimsday2details/newegg13.png,stimsday2details/couple28.png,stimsday2details/newperson25.png,stimsday2details/new25.png,stimsday2details/gift28.png,stimsday2details/cn28.png,stimsday2details/n28.png,stimsday2details/ct28.png,stimsday2details/t28.png,0,0,0,0,,,,,0,0,0,0,,,,,,,,,,,,,,,,,,,,,,,None,None,,,,,,,,,,,,,,,,,,,,,,,,,,,,,,,,,,,,,,,,,,,,,,,,,,,,,,,,,,,,,,,,,,,,,,,,,,,,,,,,,,,,,,,,,,,001,34,2020_Jan_08_0935,viewing,3.1.2,59.94832306332808,
south.png,stims/wedding-28.1a.mp4,stims/wedding-28.1b.mp4,stims/wedding-28.2a.mp4,stims/wedding-28.3b.mp4,stims/wedding-28.4a.mp4,stims/wedding-28.5.mp4,stimsday2details/egg28.png,stimsday2details/newegg13.png,stimsday2details/couple28.png,stimsday2details/newperson25.png,stimsday2details/new25.png,stimsday2details/gift28.png,stimsday2details/cn28.png,stimsday2details/n28.png,stimsday2details/ct28.png,stimsday2details/t28.png,0,0,0,0,,,,,,,,,0,0,0,0,,,,,,,,,,,,,,,,,,,,,None,None,None,None,None,None,None,None,None,None,None,None,None,None,,,,,,,,,,,,,,,,,,,,,,,,,,,,,,,,,,,,,,,,,,,,,,,,,,,,,,,,,,,,,,,,,,,,,,,,,,,,,001,34,2020_Jan_08_0935,viewing,3.1.2,59.94832306332808,
south.png,stims/wedding-28.1a.mp4,stims/wedding-28.1b.mp4,stims/wedding-28.2a.mp4,stims/wedding-28.3b.mp4,stims/wedding-28.4a.mp4,stims/wedding-28.5.mp4,stimsday2details/egg28.png,stimsday2details/newegg13.png,stimsday2details/couple28.png,stimsday2details/newperson25.png,stimsday2details/new25.png,stimsday2details/gift28.png,stimsday2details/cn28.png,stimsday2details/n28.png,stimsday2details/ct28.png,stimsday2details/t28.png,0,0,0,0,,,,,,,,,,,,,0,0,0,0,,,,,,,,,,,,,,,,,,,,,,,,,,,,,,,2.8085535457357764,None,41.40678508579731,66.61063281539828,66.62259367387742,None,75.60560584254563,92.6106348792091,92.62281025387347,96.60622452478856,96.62260943744332,119.60602915287018,119.6271182578057,123.6050012698397,123.62315537594259,147.6053428677842,147.62215919792652,None,['2'],[2.439666973426938],91.62280764989555,96.60622452478856,['1'],[3.2365668853744864],118.60503096971661,123.6050012698397,,,,,,,,,,,,,,,,,,,,,,,,,,,,,,,,,,,,,,,,,,,,,,,,,,,001,34,2020_Jan_08_0935,viewing,3.1.2,59.94832306332808,
south.png,stims/wedding-28.1a.mp4,stims/wedding-28.1b.mp4,stims/wedding-28.2a.mp4,stims/wedding-28.3b.mp4,stims/wedding-28.4a.mp4,stims/wedding-28.5.mp4,stimsday2details/egg28.png,stimsday2details/newegg13.png,stimsday2details/couple28.png,stimsday2details/newperson25.png,stimsday2details/new25.png,stimsday2details/gift28.png,stimsday2details/cn28.png,stimsday2details/n28.png,stimsday2details/ct28.png,stimsday2details/t28.png,0,0,0,0,,,,,,,,,,,,,,,,,,,,,,,,,,,,,,,,,,,,,,,,,,,,,,,,,,,,,,,,,,,,,,,,,,,,,,,,,3.050547093153e-05,None,2,1.3533000657334924,168.75455473270267,None,168.75455473270267,None,168.75455473270267,None,170.73802483920008,None,1,0.6186956856399775,170.73802483920008,None,170.73802483920008,None,172.7380346832797,None,172.7380346832797,None,1,0.6027532713487744,172.7380346832797,None,2,0.7685731444507837,174.73902699444443,None,174.73902699444443,None,174.73902699444443,None,176.74265505373478,None,176.74265505373478,None,2,0.7649568477645516,176.74265505373478,None,178.74274787586182,None,178.74274787586182,None,2,0.6511480966582894,178.74274787586182,None,001,34,2020_Jan_08_0935,viewing,3.1.2,59.94832306332808,
north.png,stims/wedding-6.1a.mp4,stims/wedding-6.1b.mp4,stims/wedding-6.2a.mp4,stims/wedding-6.3a.mp4,stims/wedding-6.4a.mp4,stims/wedding-6.5.mp4,stimsday2details/newegg14.png,stimsday2details/egg6.png,stimsday2details/couple6.png,stimsday2details/newperson26.png,stimsday2details/gift6.png,stimsday2details/new26.png,stimsday2details/n6.png,stimsday2details/cn6.png,stimsday2details/ct6.png,stimsday2details/t6.png,0,1,1,1,0,0,0,0,,,,,,,,,,,,,,,,,,,,,,,,,None,None,,,,,,,,,,,,,,,,,,,,,,,,,,,,,,,,,,,,,,,,,,,,,,,,,,,,,,,,,,,,,,,,,,,,,,,,,,,,,,,,,,,,,,,,,,,,,001,34,2020_Jan_08_0935,viewing,3.1.2,59.94832306332808,
north.png,stims/wedding-6.1a.mp4,stims/wedding-6.1b.mp4,stims/wedding-6.2a.mp4,stims/wedding-6.3a.mp4,stims/wedding-6.4a.mp4,stims/wedding-6.5.mp4,stimsday2details/newegg14.png,stimsday2details/egg6.png,stimsday2details/couple6.png,stimsday2details/newperson26.png,stimsday2details/gift6.png,stimsday2details/new26.png,stimsday2details/n6.png,stimsday2details/cn6.png,stimsday2details/ct6.png,stimsday2details/t6.png,0,1,1,1,,,,,0,0,0,0,,,,,,,,,,,,,,,,,,,,,,,180.78864129818976,None,,,,,,,,,,,,,,,,,,,,,,,,,,,,,,,,,,,,,,,,,,,,,,,,,,,,,,,,,,,,,,,,,,,,,,,,,,,,,,,,,,,,,,,,,,,001,34,2020_Jan_08_0935,viewing,3.1.2,59.94832306332808,
north.png,stims/wedding-6.1a.mp4,stims/wedding-6.1b.mp4,stims/wedding-6.2a.mp4,stims/wedding-6.3a.mp4,stims/wedding-6.4a.mp4,stims/wedding-6.5.mp4,stimsday2details/newegg14.png,stimsday2details/egg6.png,stimsday2details/couple6.png,stimsday2details/newperson26.png,stimsday2details/gift6.png,stimsday2details/new26.png,stimsday2details/n6.png,stimsday2details/cn6.png,stimsday2details/ct6.png,stimsday2details/t6.png,0,1,1,1,,,,,,,,,0,0,0,0,,,,,,,,,,,,,,,,,,,,,3.2181935319676995,None,191.05431812629104,215.83758892677724,215.85407299920917,None,224.85491719748825,241.84232947696,241.858385280706,264.84077197220176,264.854023094289,288.83673934452236,288.8533627456054,None,,,,,,,,,,,,,,,,,,,,,,,,,,,,,,,,,,,,,,,,,,,,,,,,,,,,,,,,,,,,,,,,,,,,,,,,,,,,,001,34,2020_Jan_08_0935,viewing,3.1.2,59.94832306332808,
north.png,stims/wedding-6.1a.mp4,stims/wedding-6.1b.mp4,stims/wedding-6.2a.mp4,stims/wedding-6.3a.mp4,stims/wedding-6.4a.mp4,stims/wedding-6.5.mp4,stimsday2details/newegg14.png,stimsday2details/egg6.png,stimsday2details/couple6.png,stimsday2details/newperson26.png,stimsday2details/gift6.png,stimsday2details/new26.png,stimsday2details/n6.png,stimsday2details/cn6.png,stimsday2details/ct6.png,stimsday2details/t6.png,0,1,1,1,,,,,,,,,,,,,0,0,0,0,,,,,,,,,,,,,,,,,,,,,,,,,,,,,,,None,None,None,None,None,None,None,None,None,None,None,None,None,None,None,None,None,None,None,,None,None,None,,None,None,,,,,,,,,,,,,,,,,,,,,,,,,,,,,,,,,,,,,,,,,,,,,,,,,,,001,34,2020_Jan_08_0935,viewing,3.1.2,59.94832306332808,
north.png,stims/wedding-6.1a.mp4,stims/wedding-6.1b.mp4,stims/wedding-6.2a.mp4,stims/wedding-6.3a.mp4,stims/wedding-6.4a.mp4,stims/wedding-6.5.mp4,stimsday2details/newegg14.png,stimsday2details/egg6.png,stimsday2details/couple6.png,stimsday2details/newperson26.png,stimsday2details/gift6.png,stimsday2details/new26.png,stimsday2details/n6.png,stimsday2details/cn6.png,stimsday2details/ct6.png,stimsday2details/t6.png,0,1,1,1,,,,,,,,,,,,,,,,,,,,,,,,,,,,,,,,,,,,,,,,,,,,,,,,,,,,,,,,,,,,,,,,,,,,,,,,,3.075879067182541e-05,None,1,1.2355258092284203,312.6198401451111,None,312.6198401451111,None,312.6198401451111,None,314.60345818754286,None,2,0.7226789221167564,314.60345818754286,None,314.60345818754286,None,316.60341580957174,None,316.60341580957174,None,1,1.0519798966124654,316.60341580957174,None,2,1.0355899846181273,318.6075411979109,None,318.6075411979109,None,318.6075411979109,None,320.60291180945933,None,320.60291180945933,None,1,1.6202863845974207,320.60291180945933,None,322.60359223745763,None,322.60359223745763,None,1,1.1564595699310303,322.60359223745763,None,001,34,2020_Jan_08_0935,viewing,3.1.2,59.94832306332808,
north.png,stims/wedding-1.1a.mp4,stims/wedding-1.1b.mp4,stims/wedding-1.2b.mp4,stims/wedding-1.3b.mp4,stims/wedding-1.4b.mp4,stims/wedding-1.5.mp4,stimsday2details/painting1.png,stimsday2details/newpainting13.png,stimsday2details/couple1.png,stimsday2details/newperson27.png,stimsday2details/gift1.png,stimsday2details/new27.png,stimsday2details/n1.png,stimsday2details/cn1.png,stimsday2details/ct1.png,stimsday2details/t1.png,0,2,2,2,0,0,0,0,,,,,,,,,,,,,,,,,,,,,,,,,None,None,,,,,,,,,,,,,,,,,,,,,,,,,,,,,,,,,,,,,,,,,,,,,,,,,,,,,,,,,,,,,,,,,,,,,,,,,,,,,,,,,,,,,,,,,,,,,001,34,2020_Jan_08_0935,viewing,3.1.2,59.94832306332808,
north.png,stims/wedding-1.1a.mp4,stims/wedding-1.1b.mp4,stims/wedding-1.2b.mp4,stims/wedding-1.3b.mp4,stims/wedding-1.4b.mp4,stims/wedding-1.5.mp4,stimsday2details/painting1.png,stimsday2details/newpainting13.png,stimsday2details/couple1.png,stimsday2details/newperson27.png,stimsday2details/gift1.png,stimsday2details/new27.png,stimsday2details/n1.png,stimsday2details/cn1.png,stimsday2details/ct1.png,stimsday2details/t1.png,0,2,2,2,,,,,0,0,0,0,,,,,,,,,,,,,,,,,,,,,,,324.66943402029574,None,,,,,,,,,,,,,,,,,,,,,,,,,,,,,,,,,,,,,,,,,,,,,,,,,,,,,,,,,,,,,,,,,,,,,,,,,,,,,,,,,,,,,,,,,,,001,34,2020_Jan_08_0935,viewing,3.1.2,59.94832306332808,
north.png,stims/wedding-1.1a.mp4,stims/wedding-1.1b.mp4,stims/wedding-1.2b.mp4,stims/wedding-1.3b.mp4,stims/wedding-1.4b.mp4,stims/wedding-1.5.mp4,stimsday2details/painting1.png,stimsday2details/newpainting13.png,stimsday2details/couple1.png,stimsday2details/newperson27.png,stimsday2details/gift1.png,stimsday2details/new27.png,stimsday2details/n1.png,stimsday2details/cn1.png,stimsday2details/ct1.png,stimsday2details/t1.png,0,2,2,2,,,,,,,,,0,0,0,0,,,,,,,,,,,,,,,,,,,,,3.080962050706148,None,334.8361322591081,359.75245607923716,359.75245607923716,None,368.7520716721192,None,385.7694335328415,408.75140290148556,408.7688663043082,432.75127077754587,432.7679852480069,None,,,,,,,,,,,,,,,,,,,,,,,,,,,,,,,,,,,,,,,,,,,,,,,,,,,,,,,,,,,,,,,,,,,,,,,,,,,,,001,34,2020_Jan_08_0935,viewing,3.1.2,59.94832306332808,
north.png,stims/wedding-1.1a.mp4,stims/wedding-1.1b.mp4,stims/wedding-1.2b.mp4,stims/wedding-1.3b.mp4,stims/wedding-1.4b.mp4,stims/wedding-1.5.mp4,stimsday2details/painting1.png,stimsday2details/newpainting13.png,stimsday2details/couple1.png,stimsday2details/newperson27.png,stimsday2details/gift1.png,stimsday2details/new27.png,stimsday2details/n1.png,stimsday2details/cn1.png,stimsday2details/ct1.png,stimsday2details/t1.png,0,2,2,2,,,,,,,,,,,,,0,0,0,0,,,,,,,,,,,,,,,,,,,,,,,,,,,,,,,None,None,None,None,None,None,None,None,None,None,None,None,None,None,None,None,None,None,None,,None,None,None,,None,None,,,,,,,,,,,,,,,,,,,,,,,,,,,,,,,,,,,,,,,,,,,,,,,,,,,001,34,2020_Jan_08_0935,viewing,3.1.2,59.94832306332808,
north.png,stims/wedding-1.1a.mp4,stims/wedding-1.1b.mp4,stims/wedding-1.2b.mp4,stims/wedding-1.3b.mp4,stims/wedding-1.4b.mp4,stims/wedding-1.5.mp4,stimsday2details/painting1.png,stimsday2details/newpainting13.png,stimsday2details/couple1.png,stimsday2details/newperson27.png,stimsday2details/gift1.png,stimsday2details/new27.png,stimsday2details/n1.png,stimsday2details/cn1.png,stimsday2details/ct1.png,stimsday2details/t1.png,0,2,2,2,,,,,,,,,,,,,,,,,,,,,,,,,,,,,,,,,,,,,,,,,,,,,,,,,,,,,,,,,,,,,,,,,,,,,,,,,3.83695587515831e-05,None,1,1.1157008362933993,456.3050603447482,None,456.3050603447482,None,456.3050603447482,None,458.30114422924817,None,1,0.802159147337079,458.30114422924817,None,458.30114422924817,None,460.3016380863264,None,460.3016380863264,None,1,1.467982073314488,460.3016380863264,None,2,1.3570419289171696,462.30122515093535,None,462.30122515093535,None,462.30122515093535,None,464.30639085918665,None,464.30639085918665,None,1,1.0186383053660393,464.30639085918665,None,466.30569196119905,None,466.30569196119905,None,1,0.8187204785645008,466.30569196119905,None,001,34,2020_Jan_08_0935,viewing,3.1.2,59.94832306332808,
south.png,stims/wedding-20.1a.mp4,stims/wedding-20.1b.mp4,stims/wedding-20.2b.mp4,stims/wedding-20.3a.mp4,stims/wedding-20.4b.mp4,stims/wedding-20.5.mp4,stimsday2details/painting20.png,stimsday2details/newpainting14.png,stimsday2details/couple20.png,stimsday2details/newperson28.png,stimsday2details/new28.png,stimsday2details/gift20.png,stimsday2details/cn20.png,stimsday2details/n20.png,stimsday2details/t20.png,stimsday2details/ct20.png,0,3,3,3,0,0,0,0,,,,,,,,,,,,,,,,,,,,,,,,,468.3011426217854,None,,,,,,,,,,,,,,,,,,,,,,,,,,,,,,,,,,,,,,,,,,,,,,,,,,,,,,,,,,,,,,,,,,,,,,,,,,,,,,,,,,,,,,,,,,,,,001,34,2020_Jan_08_0935,viewing,3.1.2,59.94832306332808,
south.png,stims/wedding-20.1a.mp4,stims/wedding-20.1b.mp4,stims/wedding-20.2b.mp4,stims/wedding-20.3a.mp4,stims/wedding-20.4b.mp4,stims/wedding-20.5.mp4,stimsday2details/painting20.png,stimsday2details/newpainting14.png,stimsday2details/couple20.png,stimsday2details/newperson28.png,stimsday2details/new28.png,stimsday2details/gift20.png,stimsday2details/cn20.png,stimsday2details/n20.png,stimsday2details/t20.png,stimsday2details/ct20.png,0,3,3,3,,,,,0,0,0,0,,,,,,,,,,,,,,,,,,,,,,,None,None,,,,,,,,,,,,,,,,,,,,,,,,,,,,,,,,,,,,,,,,,,,,,,,,,,,,,,,,,,,,,,,,,,,,,,,,,,,,,,,,,,,,,,,,,,,001,34,2020_Jan_08_0935,viewing,3.1.2,59.94832306332808,
south.png,stims/wedding-20.1a.mp4,stims/wedding-20.1b.mp4,stims/wedding-20.2b.mp4,stims/wedding-20.3a.mp4,stims/wedding-20.4b.mp4,stims/wedding-20.5.mp4,stimsday2details/painting20.png,stimsday2details/newpainting14.png,stimsday2details/couple20.png,stimsday2details/newperson28.png,stimsday2details/new28.png,stimsday2details/gift20.png,stimsday2details/cn20.png,stimsday2details/n20.png,stimsday2details/t20.png,stimsday2details/ct20.png,0,3,3,3,,,,,,,,,0,0,0,0,,,,,,,,,,,,,,,,,,,,,2.8168983412906528,None,478.3014795668423,503.4835563628003,503.50067107751966,None,512.5004743123427,None,529.5002750810236,552.4841213617474,552.49974123016,None,576.4993594940752,None,,,,,,,,,,,,,,,,,,,,,,,,,,,,,,,,,,,,,,,,,,,,,,,,,,,,,,,,,,,,,,,,,,,,,,,,,,,,,001,34,2020_Jan_08_0935,viewing,3.1.2,59.94832306332808,
south.png,stims/wedding-20.1a.mp4,stims/wedding-20.1b.mp4,stims/wedding-20.2b.mp4,stims/wedding-20.3a.mp4,stims/wedding-20.4b.mp4,stims/wedding-20.5.mp4,stimsday2details/painting20.png,stimsday2details/newpainting14.png,stimsday2details/couple20.png,stimsday2details/newperson28.png,stimsday2details/new28.png,stimsday2details/gift20.png,stimsday2details/cn20.png,stimsday2details/n20.png,stimsday2details/t20.png,stimsday2details/ct20.png,0,3,3,3,,,,,,,,,,,,,0,0,0,0,,,,,,,,,,,,,,,,,,,,,,,,,,,,,,,None,None,None,None,None,None,None,None,None,None,None,None,None,None,None,None,None,None,None,,None,None,None,,None,None,,,,,,,,,,,,,,,,,,,,,,,,,,,,,,,,,,,,,,,,,,,,,,,,,,,001,34,2020_Jan_08_0935,viewing,3.1.2,59.94832306332808,
south.png,stims/wedding-20.1a.mp4,stims/wedding-20.1b.mp4,stims/wedding-20.2b.mp4,stims/wedding-20.3a.mp4,stims/wedding-20.4b.mp4,stims/wedding-20.5.mp4,stimsday2details/painting20.png,stimsday2details/newpainting14.png,stimsday2details/couple20.png,stimsday2details/newperson28.png,stimsday2details/new28.png,stimsday2details/gift20.png,stimsday2details/cn20.png,stimsday2details/n20.png,stimsday2details/t20.png,stimsday2details/ct20.png,0,3,3,3,,,,,,,,,,,,,,,,,,,,,,,,,,,,,,,,,,,,,,,,,,,,,,,,,,,,,,,,,,,,,,,,,,,,,,,,,4.035700112581253e-05,None,2,1.2828455036506057,599.1521068317816,None,599.1521068317816,None,599.1521068317816,None,601.150080841966,None,1,0.9190727518871427,601.150080841966,None,601.150080841966,None,603.1499420823529,None,603.1499420823529,None,1,1.018891353160143,603.1499420823529,None,1,1.4736502449959517,605.1494127362967,None,605.1494127362967,None,605.1494127362967,None,607.149267504923,None,607.149267504923,None,2,0.7865533549338579,607.149267504923,None,609.149426329881,None,609.149426329881,None,1,1.152518616989255,609.149426329881,None,001,34,2020_Jan_08_0935,viewing,3.1.2,59.94832306332808,
south.png,stims/wedding-22.1a.mp4,stims/wedding-22.1b.mp4,stims/wedding-22.2a.mp4,stims/wedding-22.3b.mp4,stims/wedding-22.4a.mp4,stims/wedding-22.5.mp4,stimsday2details/newegg15.png,stimsday2details/egg22.png,stimsday2details/couple22.png,stimsday2details/newperson29.png,stimsday2details/new29.png,stimsday2details/gift22.png,stimsday2details/cn22.png,stimsday2details/n22.png,stimsday2details/ct22.png,stimsday2details/t22.png,0,4,4,4,0,0,0,0,,,,,,,,,,,,,,,,,,,,,,,,,611.1493477178738,None,,,,,,,,,,,,,,,,,,,,,,,,,,,,,,,,,,,,,,,,,,,,,,,,,,,,,,,,,,,,,,,,,,,,,,,,,,,,,,,,,,,,,,,,,,,,,001,34,2020_Jan_08_0935,viewing,3.1.2,59.94832306332808,
south.png,stims/wedding-22.1a.mp4,stims/wedding-22.1b.mp4,stims/wedding-22.2a.mp4,stims/wedding-22.3b.mp4,stims/wedding-22.4a.mp4,stims/wedding-22.5.mp4,stimsday2details/newegg15.png,stimsday2details/egg22.png,stimsday2details/couple22.png,stimsday2details/newperson29.png,stimsday2details/new29.png,stimsday2details/gift22.png,stimsday2details/cn22.png,stimsday2details/n22.png,stimsday2details/ct22.png,stimsday2details/t22.png,0,4,4,4,,,,,0,0,0,0,,,,,,,,,,,,,,,,,,,,,,,None,None,,,,,,,,,,,,,,,,,,,,,,,,,,,,,,,,,,,,,,,,,,,,,,,,,,,,,,,,,,,,,,,,,,,,,,,,,,,,,,,,,,,,,,,,,,,001,34,2020_Jan_08_0935,viewing,3.1.2,59.94832306332808,
south.png,stims/wedding-22.1a.mp4,stims/wedding-22.1b.mp4,stims/wedding-22.2a.mp4,stims/wedding-22.3b.mp4,stims/wedding-22.4a.mp4,stims/wedding-22.5.mp4,stimsday2details/newegg15.png,stimsday2details/egg22.png,stimsday2details/couple22.png,stimsday2details/newperson29.png,stimsday2details/new29.png,stimsday2details/gift22.png,stimsday2details/cn22.png,stimsday2details/n22.png,stimsday2details/ct22.png,stimsday2details/t22.png,0,4,4,4,,,,,,,,,0,0,0,0,,,,,,,,,,,,,,,,,,,,,3.0678638545796275,None,621.4491030275822,646.3827318288386,646.3996108090505,None,655.3983714003116,672.3829318098724,672.3996308883652,695.3821346787736,695.3982062125579,719.3812059583142,719.3985997568816,None,,,,,,,,,,,,,,,,,,,,,,,,,,,,,,,,,,,,,,,,,,,,,,,,,,,,,,,,,,,,,,,,,,,,,,,,,,,,,001,34,2020_Jan_08_0935,viewing,3.1.2,59.94832306332808,
south.png,stims/wedding-22.1a.mp4,stims/wedding-22.1b.mp4,stims/wedding-22.2a.mp4,stims/wedding-22.3b.mp4,stims/wedding-22.4a.mp4,stims/wedding-22.5.mp4,stimsday2details/newegg15.png,stimsday2details/egg22.png,stimsday2details/couple22.png,stimsday2details/newperson29.png,stimsday2details/new29.png,stimsday2details/gift22.png,stimsday2details/cn22.png,stimsday2details/n22.png,stimsday2details/ct22.png,stimsday2details/t22.png,0,4,4,4,,,,,,,,,,,,,0,0,0,0,,,,,,,,,,,,,,,,,,,,,,,,,,,,,,,None,None,None,None,None,None,None,None,None,None,None,None,None,None,None,None,None,None,None,,None,None,None,,None,None,,,,,,,,,,,,,,,,,,,,,,,,,,,,,,,,,,,,,,,,,,,,,,,,,,,001,34,2020_Jan_08_0935,viewing,3.1.2,59.94832306332808,
south.png,stims/wedding-22.1a.mp4,stims/wedding-22.1b.mp4,stims/wedding-22.2a.mp4,stims/wedding-22.3b.mp4,stims/wedding-22.4a.mp4,stims/wedding-22.5.mp4,stimsday2details/newegg15.png,stimsday2details/egg22.png,stimsday2details/couple22.png,stimsday2details/newperson29.png,stimsday2details/new29.png,stimsday2details/gift22.png,stimsday2details/cn22.png,stimsday2details/n22.png,stimsday2details/ct22.png,stimsday2details/t22.png,0,4,4,4,,,,,,,,,,,,,,,,,,,,,,,,,,,,,,,,,,,,,,,,,,,,,,,,,,,,,,,,,,,,,,,,,,,,,,,,,3.945641219615936e-05,None,None,,743.1901631196961,None,743.1901631196961,None,743.1901631196961,None,745.1814473774284,None,2,1.0732431840151548,745.1814473774284,None,745.1814473774284,None,747.1814750460908,None,747.1814750460908,None,1,1.5570762883871794,747.1814750460908,None,2,1.202744229696691,749.1846595555544,None,749.1846595555544,None,749.1846595555544,None,751.180621387437,None,751.180621387437,None,2,0.8740725545212626,751.180621387437,None,753.1806493392214,None,753.1806493392214,None,2,0.8900396153330803,753.1806493392214,None,001,34,2020_Jan_08_0935,viewing,3.1.2,59.94832306332808,
north.png,stims/wedding-2.1a.mp4,stims/wedding-2.1b.mp4,stims/wedding-2.2a.mp4,stims/wedding-2.3a.mp4,stims/wedding-2.4a.mp4,stims/wedding-2.5.mp4,stimsday2details/egg2.png,stimsday2details/newegg16.png,stimsday2details/newperson30.png,stimsday2details/couple2.png,stimsday2details/gift2.png,stimsday2details/new30.png,stimsday2details/n2.png,stimsday2details/cn2.png,stimsday2details/t2.png,stimsday2details/ct2.png,0,5,5,5,0,0,0,0,,,,,,,,,,,,,,,,,,,,,,,,,None,None,,,,,,,,,,,,,,,,,,,,,,,,,,,,,,,,,,,,,,,,,,,,,,,,,,,,,,,,,,,,,,,,,,,,,,,,,,,,,,,,,,,,,,,,,,,,,001,34,2020_Jan_08_0935,viewing,3.1.2,59.94832306332808,
north.png,stims/wedding-2.1a.mp4,stims/wedding-2.1b.mp4,stims/wedding-2.2a.mp4,stims/wedding-2.3a.mp4,stims/wedding-2.4a.mp4,stims/wedding-2.5.mp4,stimsday2details/egg2.png,stimsday2details/newegg16.png,stimsday2details/newperson30.png,stimsday2details/couple2.png,stimsday2details/gift2.png,stimsday2details/new30.png,stimsday2details/n2.png,stimsday2details/cn2.png,stimsday2details/t2.png,stimsday2details/ct2.png,0,5,5,5,,,,,0,0,0,0,,,,,,,,,,,,,,,,,,,,,,,755.3145266193897,None,,,,,,,,,,,,,,,,,,,,,,,,,,,,,,,,,,,,,,,,,,,,,,,,,,,,,,,,,,,,,,,,,,,,,,,,,,,,,,,,,,,,,,,,,,,001,34,2020_Jan_08_0935,viewing,3.1.2,59.94832306332808,
north.png,stims/wedding-2.1a.mp4,stims/wedding-2.1b.mp4,stims/wedding-2.2a.mp4,stims/wedding-2.3a.mp4,stims/wedding-2.4a.mp4,stims/wedding-2.5.mp4,stimsday2details/egg2.png,stimsday2details/newegg16.png,stimsday2details/newperson30.png,stimsday2details/couple2.png,stimsday2details/gift2.png,stimsday2details/new30.png,stimsday2details/n2.png,stimsday2details/cn2.png,stimsday2details/t2.png,stimsday2details/ct2.png,0,5,5,5,,,,,,,,,0,0,0,0,,,,,,,,,,,,,,,,,,,,,2.8203755794093013,None,765.2813706118613,None,790.4637336172163,None,799.4645750923082,None,816.4643093785271,839.446755360812,839.4631868721917,None,863.4627590859309,None,,,,,,,,,,,,,,,,,,,,,,,,,,,,,,,,,,,,,,,,,,,,,,,,,,,,,,,,,,,,,,,,,,,,,,,,,,,,,001,34,2020_Jan_08_0935,viewing,3.1.2,59.94832306332808,
north.png,stims/wedding-2.1a.mp4,stims/wedding-2.1b.mp4,stims/wedding-2.2a.mp4,stims/wedding-2.3a.mp4,stims/wedding-2.4a.mp4,stims/wedding-2.5.mp4,stimsday2details/egg2.png,stimsday2details/newegg16.png,stimsday2details/newperson30.png,stimsday2details/couple2.png,stimsday2details/gift2.png,stimsday2details/new30.png,stimsday2details/n2.png,stimsday2details/cn2.png,stimsday2details/t2.png,stimsday2details/ct2.png,0,5,5,5,,,,,,,,,,,,,0,0,0,0,,,,,,,,,,,,,,,,,,,,,,,,,,,,,,,None,None,None,None,None,None,None,None,None,None,None,None,None,None,None,None,None,None,None,,None,None,None,,None,None,,,,,,,,,,,,,,,,,,,,,,,,,,,,,,,,,,,,,,,,,,,,,,,,,,,001,34,2020_Jan_08_0935,viewing,3.1.2,59.94832306332808,
north.png,stims/wedding-2.1a.mp4,stims/wedding-2.1b.mp4,stims/wedding-2.2a.mp4,stims/wedding-2.3a.mp4,stims/wedding-2.4a.mp4,stims/wedding-2.5.mp4,stimsday2details/egg2.png,stimsday2details/newegg16.png,stimsday2details/newperson30.png,stimsday2details/couple2.png,stimsday2details/gift2.png,stimsday2details/new30.png,stimsday2details/n2.png,stimsday2details/cn2.png,stimsday2details/t2.png,stimsday2details/ct2.png,0,5,5,5,,,,,,,,,,,,,,,,,,,,,,,,,,,,,,,,,,,,,,,,,,,,,,,,,,,,,,,,,,,,,,,,,,,,,,,,,4.315190017223358e-05,None,1,0.8189491899684072,887.2289880197495,None,887.2289880197495,None,887.2289880197495,None,889.2293576169759,None,1,0.7687730127945542,889.2293576169759,None,889.2293576169759,None,891.229109426029,None,891.229109426029,None,2,0.7854072535410523,891.229109426029,None,1,1.0314371632412076,893.2340894043446,None,893.2340894043446,None,893.2340894043446,None,895.233959928155,None,895.233959928155,None,1,0.8014911776408553,895.233959928155,None,897.2298728618771,None,897.2298728618771,None,1,1.4856780115514994,897.2298728618771,None,001,34,2020_Jan_08_0935,viewing,3.1.2,59.94832306332808,
north.png,stims/wedding-29.1a.mp4,stims/wedding-29.1b.mp4,stims/wedding-29.2b.mp4,stims/wedding-29.3b.mp4,stims/wedding-29.4b.mp4,stims/wedding-29.5.mp4,stimsday2details/newpainting15.png,stimsday2details/painting29.png,stimsday2details/couple29.png,stimsday2details/newperson31.png,stimsday2details/new31.png,stimsday2details/gift29.png,stimsday2details/cn29.png,stimsday2details/n29.png,stimsday2details/t29.png,stimsday2details/ct29.png,0,6,6,6,0,0,0,0,,,,,,,,,,,,,,,,,,,,,,,,,None,None,,,,,,,,,,,,,,,,,,,,,,,,,,,,,,,,,,,,,,,,,,,,,,,,,,,,,,,,,,,,,,,,,,,,,,,,,,,,,,,,,,,,,,,,,,,,,001,34,2020_Jan_08_0935,viewing,3.1.2,59.94832306332808,
north.png,stims/wedding-29.1a.mp4,stims/wedding-29.1b.mp4,stims/wedding-29.2b.mp4,stims/wedding-29.3b.mp4,stims/wedding-29.4b.mp4,stims/wedding-29.5.mp4,stimsday2details/newpainting15.png,stimsday2details/painting29.png,stimsday2details/couple29.png,stimsday2details/newperson31.png,stimsday2details/new31.png,stimsday2details/gift29.png,stimsday2details/cn29.png,stimsday2details/n29.png,stimsday2details/t29.png,stimsday2details/ct29.png,0,6,6,6,,,,,0,0,0,0,,,,,,,,,,,,,,,,,,,,,,,899.3956776000559,None,,,,,,,,,,,,,,,,,,,,,,,,,,,,,,,,,,,,,,,,,,,,,,,,,,,,,,,,,,,,,,,,,,,,,,,,,,,,,,,,,,,,,,,,,,,001,34,2020_Jan_08_0935,viewing,3.1.2,59.94832306332808,
north.png,stims/wedding-29.1a.mp4,stims/wedding-29.1b.mp4,stims/wedding-29.2b.mp4,stims/wedding-29.3b.mp4,stims/wedding-29.4b.mp4,stims/wedding-29.5.mp4,stimsday2details/newpainting15.png,stimsday2details/painting29.png,stimsday2details/couple29.png,stimsday2details/newperson31.png,stimsday2details/new31.png,stimsday2details/gift29.png,stimsday2details/cn29.png,stimsday2details/n29.png,stimsday2details/t29.png,stimsday2details/ct29.png,0,6,6,6,,,,,,,,,0,0,0,0,,,,,,,,,,,,,,,,,,,,,3.0889055905863643,None,909.6287031853572,934.5460373675451,934.5625905273482,None,943.5626526195556,None,960.5612834719941,983.544860756956,983.5617407374084,None,1007.5613709045574,None,,,,,,,,,,,,,,,,,,,,,,,,,,,,,,,,,,,,,,,,,,,,,,,,,,,,,,,,,,,,,,,,,,,,,,,,,,,,,001,34,2020_Jan_08_0935,viewing,3.1.2,59.94832306332808,
north.png,stims/wedding-29.1a.mp4,stims/wedding-29.1b.mp4,stims/wedding-29.2b.mp4,stims/wedding-29.3b.mp4,stims/wedding-29.4b.mp4,stims/wedding-29.5.mp4,stimsday2details/newpainting15.png,stimsday2details/painting29.png,stimsday2details/couple29.png,stimsday2details/newperson31.png,stimsday2details/new31.png,stimsday2details/gift29.png,stimsday2details/cn29.png,stimsday2details/n29.png,stimsday2details/t29.png,stimsday2details/ct29.png,0,6,6,6,,,,,,,,,,,,,0,0,0,0,,,,,,,,,,,,,,,,,,,,,,,,,,,,,,,None,None,None,None,None,None,None,None,None,None,None,None,None,None,None,None,None,None,None,,None,None,None,,None,None,,,,,,,,,,,,,,,,,,,,,,,,,,,,,,,,,,,,,,,,,,,,,,,,,,,001,34,2020_Jan_08_0935,viewing,3.1.2,59.94832306332808,
north.png,stims/wedding-29.1a.mp4,stims/wedding-29.1b.mp4,stims/wedding-29.2b.mp4,stims/wedding-29.3b.mp4,stims/wedding-29.4b.mp4,stims/wedding-29.5.mp4,stimsday2details/newpainting15.png,stimsday2details/painting29.png,stimsday2details/couple29.png,stimsday2details/newperson31.png,stimsday2details/new31.png,stimsday2details/gift29.png,stimsday2details/cn29.png,stimsday2details/n29.png,stimsday2details/t29.png,stimsday2details/ct29.png,0,6,6,6,,,,,,,,,,,,,,,,,,,,,,,,,,,,,,,,,,,,,,,,,,,,,,,,,,,,,,,,,,,,,,,,,,,,,,,,,3.4594908356666565e-05,None,2,1.8684079833328724,1031.010986766778,None,1031.010986766778,None,1031.010986766778,None,1032.9943624064326,None,2,0.7855652505531907,1032.9943624064326,None,1032.9943624064326,None,1034.998428328894,None,1034.998428328894,None,1,0.5649664960801601,1034.998428328894,None,1,1.6526992991566658,1036.99419856444,None,1036.99419856444,None,1036.99419856444,None,1038.993734757416,None,1038.993734757416,None,2,0.7028587628155947,1038.993734757416,None,1040.9942452488467,None,1040.9942452488467,None,1,0.8015305660665035,1040.9942452488467,None,001,34,2020_Jan_08_0935,viewing,3.1.2,59.94832306332808,
south.png,stims/wedding-38.1a.mp4,stims/wedding-38.1b.mp4,stims/wedding-38.2a.mp4,stims/wedding-38.3b.mp4,stims/wedding-38.4a.mp4,stims/wedding-38.5.mp4,stimsday2details/egg38.png,stimsday2details/newegg17.png,stimsday2details/newperson32.png,stimsday2details/couple38.png,stimsday2details/gift38.png,stimsday2details/new32.png,stimsday2details/n38.png,stimsday2details/cn38.png,stimsday2details/t38.png,stimsday2details/ct38.png,0,7,7,7,0,0,0,0,,,,,,,,,,,,,,,,,,,,,,,,,1042.9939984809607,None,,,,,,,,,,,,,,,,,,,,,,,,,,,,,,,,,,,,,,,,,,,,,,,,,,,,,,,,,,,,,,,,,,,,,,,,,,,,,,,,,,,,,,,,,,,,,001,34,2020_Jan_08_0935,viewing,3.1.2,59.94832306332808,
south.png,stims/wedding-38.1a.mp4,stims/wedding-38.1b.mp4,stims/wedding-38.2a.mp4,stims/wedding-38.3b.mp4,stims/wedding-38.4a.mp4,stims/wedding-38.5.mp4,stimsday2details/egg38.png,stimsday2details/newegg17.png,stimsday2details/newperson32.png,stimsday2details/couple38.png,stimsday2details/gift38.png,stimsday2details/new32.png,stimsday2details/n38.png,stimsday2details/cn38.png,stimsday2details/t38.png,stimsday2details/ct38.png,0,7,7,7,,,,,0,0,0,0,,,,,,,,,,,,,,,,,,,,,,,None,None,,,,,,,,,,,,,,,,,,,,,,,,,,,,,,,,,,,,,,,,,,,,,,,,,,,,,,,,,,,,,,,,,,,,,,,,,,,,,,,,,,,,,,,,,,,001,34,2020_Jan_08_0935,viewing,3.1.2,59.94832306332808,
south.png,stims/wedding-38.1a.mp4,stims/wedding-38.1b.mp4,stims/wedding-38.2a.mp4,stims/wedding-38.3b.mp4,stims/wedding-38.4a.mp4,stims/wedding-38.5.mp4,stimsday2details/egg38.png,stimsday2details/newegg17.png,stimsday2details/newperson32.png,stimsday2details/couple38.png,stimsday2details/gift38.png,stimsday2details/new32.png,stimsday2details/n38.png,stimsday2details/cn38.png,stimsday2details/t38.png,stimsday2details/ct38.png,0,7,7,7,,,,,,,,,0,0,0,0,,,,,,,,,,,,,,,,,,,,,2.995740889571607,None,1053.3608984248713,1078.3597198138013,1078.3773344531655,None,1087.3772280644625,1104.3599695898592,1104.3769513908774,1127.3600173927844,1127.376337257214,None,1151.3758668052033,None,,,,,,,,,,,,,,,,,,,,,,,,,,,,,,,,,,,,,,,,,,,,,,,,,,,,,,,,,,,,,,,,,,,,,,,,,,,,,001,34,2020_Jan_08_0935,viewing,3.1.2,59.94832306332808,
south.png,stims/wedding-38.1a.mp4,stims/wedding-38.1b.mp4,stims/wedding-38.2a.mp4,stims/wedding-38.3b.mp4,stims/wedding-38.4a.mp4,stims/wedding-38.5.mp4,stimsday2details/egg38.png,stimsday2details/newegg17.png,stimsday2details/newperson32.png,stimsday2details/couple38.png,stimsday2details/gift38.png,stimsday2details/new32.png,stimsday2details/n38.png,stimsday2details/cn38.png,stimsday2details/t38.png,stimsday2details/ct38.png,0,7,7,7,,,,,,,,,,,,,0,0,0,0,,,,,,,,,,,,,,,,,,,,,,,,,,,,,,,None,None,None,None,None,None,None,None,None,None,None,None,None,None,None,None,None,None,None,,None,None,None,,None,None,,,,,,,,,,,,,,,,,,,,,,,,,,,,,,,,,,,,,,,,,,,,,,,,,,,001,34,2020_Jan_08_0935,viewing,3.1.2,59.94832306332808,
south.png,stims/wedding-38.1a.mp4,stims/wedding-38.1b.mp4,stims/wedding-38.2a.mp4,stims/wedding-38.3b.mp4,stims/wedding-38.4a.mp4,stims/wedding-38.5.mp4,stimsday2details/egg38.png,stimsday2details/newegg17.png,stimsday2details/newperson32.png,stimsday2details/couple38.png,stimsday2details/gift38.png,stimsday2details/new32.png,stimsday2details/n38.png,stimsday2details/cn38.png,stimsday2details/t38.png,stimsday2details/ct38.png,0,7,7,7,,,,,,,,,,,,,,,,,,,,,,,,,,,,,,,,,,,,,,,,,,,,,,,,,,,,,,,,,,,,,,,,,,,,,,,,,3.8471072912216187e-05,None,1,0.9856042694300413,1175.4095894070342,None,1175.4095894070342,None,1175.4095894070342,None,1177.3926599510014,None,1,1.3243041587993503,1177.3926599510014,None,1177.3926599510014,None,1179.3933328483254,None,1179.3933328483254,None,2,1.2343451036140323,1179.3933328483254,None,1,0.9392585577443242,1181.3929069610313,None,1181.3929069610313,None,1181.3929069610313,None,1183.3923401711509,None,1183.3923401711509,None,1,1.1191047569736838,1183.3923401711509,None,1185.39733317215,None,1185.39733317215,None,2,0.7398049049079418,1185.39733317215,None,001,34,2020_Jan_08_0935,viewing,3.1.2,59.94832306332808,
south.png,stims/wedding-34.1a.mp4,stims/wedding-34.1b.mp4,stims/wedding-34.2b.mp4,stims/wedding-34.3a.mp4,stims/wedding-34.4b.mp4,stims/wedding-34.5.mp4,stimsday2details/newpainting16.png,stimsday2details/painting34.png,stimsday2details/couple34.png,stimsday2details/newperson33.png,stimsday2details/new33.png,stimsday2details/gift34.png,stimsday2details/cn34.png,stimsday2details/n34.png,stimsday2details/ct34.png,stimsday2details/t34.png,0,8,8,8,0,0,0,0,,,,,,,,,,,,,,,,,,,,,,,,,1187.3970691887662,None,,,,,,,,,,,,,,,,,,,,,,,,,,,,,,,,,,,,,,,,,,,,,,,,,,,,,,,,,,,,,,,,,,,,,,,,,,,,,,,,,,,,,,,,,,,,,001,34,2020_Jan_08_0935,viewing,3.1.2,59.94832306332808,
south.png,stims/wedding-34.1a.mp4,stims/wedding-34.1b.mp4,stims/wedding-34.2b.mp4,stims/wedding-34.3a.mp4,stims/wedding-34.4b.mp4,stims/wedding-34.5.mp4,stimsday2details/newpainting16.png,stimsday2details/painting34.png,stimsday2details/couple34.png,stimsday2details/newperson33.png,stimsday2details/new33.png,stimsday2details/gift34.png,stimsday2details/cn34.png,stimsday2details/n34.png,stimsday2details/ct34.png,stimsday2details/t34.png,0,8,8,8,,,,,0,0,0,0,,,,,,,,,,,,,,,,,,,,,,,None,None,,,,,,,,,,,,,,,,,,,,,,,,,,,,,,,,,,,,,,,,,,,,,,,,,,,,,,,,,,,,,,,,,,,,,,,,,,,,,,,,,,,,,,,,,,,001,34,2020_Jan_08_0935,viewing,3.1.2,59.94832306332808,
south.png,stims/wedding-34.1a.mp4,stims/wedding-34.1b.mp4,stims/wedding-34.2b.mp4,stims/wedding-34.3a.mp4,stims/wedding-34.4b.mp4,stims/wedding-34.5.mp4,stimsday2details/newpainting16.png,stimsday2details/painting34.png,stimsday2details/couple34.png,stimsday2details/newperson33.png,stimsday2details/new33.png,stimsday2details/gift34.png,stimsday2details/cn34.png,stimsday2details/n34.png,stimsday2details/ct34.png,stimsday2details/t34.png,0,8,8,8,,,,,,,,,0,0,0,0,,,,,,,,,,,,,,,,,,,,,2.9022102244198322,None,1197.7093890234828,1222.80832407251,1222.8248995300382,1231.8078947681934,1231.8245995603502,None,1248.8248593294993,None,1271.8251460390165,None,1295.824864990078,None,,,,,,,,,,,,,,,,,,,,,,,,,,,,,,,,,,,,,,,,,,,,,,,,,,,,,,,,,,,,,,,,,,,,,,,,,,,,,001,34,2020_Jan_08_0935,viewing,3.1.2,59.94832306332808,
south.png,stims/wedding-34.1a.mp4,stims/wedding-34.1b.mp4,stims/wedding-34.2b.mp4,stims/wedding-34.3a.mp4,stims/wedding-34.4b.mp4,stims/wedding-34.5.mp4,stimsday2details/newpainting16.png,stimsday2details/painting34.png,stimsday2details/couple34.png,stimsday2details/newperson33.png,stimsday2details/new33.png,stimsday2details/gift34.png,stimsday2details/cn34.png,stimsday2details/n34.png,stimsday2details/ct34.png,stimsday2details/t34.png,0,8,8,8,,,,,,,,,,,,,0,0,0,0,,,,,,,,,,,,,,,,,,,,,,,,,,,,,,,None,None,None,None,None,None,None,None,None,None,None,None,None,None,None,None,None,None,None,,None,None,None,,None,None,,,,,,,,,,,,,,,,,,,,,,,,,,,,,,,,,,,,,,,,,,,,,,,,,,,001,34,2020_Jan_08_0935,viewing,3.1.2,59.94832306332808,
south.png,stims/wedding-34.1a.mp4,stims/wedding-34.1b.mp4,stims/wedding-34.2b.mp4,stims/wedding-34.3a.mp4,stims/wedding-34.4b.mp4,stims/wedding-34.5.mp4,stimsday2details/newpainting16.png,stimsday2details/painting34.png,stimsday2details/couple34.png,stimsday2details/newperson33.png,stimsday2details/new33.png,stimsday2details/gift34.png,stimsday2details/cn34.png,stimsday2details/n34.png,stimsday2details/ct34.png,stimsday2details/t34.png,0,8,8,8,,,,,,,,,,,,,,,,,,,,,,,,,,,,,,,,,,,,,,,,,,,,,,,,,,,,,,,,,,,,,,,,,,,,,,,,,4.2232684791088104e-05,None,3,1.173303565941751,1319.424178940244,None,1319.424178940244,None,1319.424178940244,None,1321.407116735354,None,3,0.8349999682977796,1321.407116735354,None,1321.407116735354,None,1323.4074591742828,None,1323.4074591742828,None,2,0.5898546101525426,1323.4074591742828,None,3,1.0721965478733182,1325.4085458898917,None,1325.4085458898917,None,1325.4085458898917,None,1327.417388590984,None,1327.417388590984,None,3,1.0514679551124573,1327.417388590984,None,1329.4117114366964,None,1329.4117114366964,None,2,1.219932665117085,1329.4117114366964,None,001,34,2020_Jan_08_0935,viewing,3.1.2,59.94832306332808,
north.png,stims/wedding-19.1a.mp4,stims/wedding-19.1b.mp4,stims/wedding-19.2a.mp4,stims/wedding-19.3a.mp4,stims/wedding-19.4a.mp4,stims/wedding-19.5.mp4,stimsday2details/newegg18.png,stimsday2details/egg19.png,stimsday2details/couple19.png,stimsday2details/newperson34.png,stimsday2details/new34.png,stimsday2details/gift19.png,stimsday2details/n19.png,stimsday2details/cn19.png,stimsday2details/t19.png,stimsday2details/ct19.png,0,9,9,9,0,0,0,0,,,,,,,,,,,,,,,,,,,,,,,,,None,None,,,,,,,,,,,,,,,,,,,,,,,,,,,,,,,,,,,,,,,,,,,,,,,,,,,,,,,,,,,,,,,,,,,,,,,,,,,,,,,,,,,,,,,,,,,,,001,34,2020_Jan_08_0935,viewing,3.1.2,59.94832306332808,
north.png,stims/wedding-19.1a.mp4,stims/wedding-19.1b.mp4,stims/wedding-19.2a.mp4,stims/wedding-19.3a.mp4,stims/wedding-19.4a.mp4,stims/wedding-19.5.mp4,stimsday2details/newegg18.png,stimsday2details/egg19.png,stimsday2details/couple19.png,stimsday2details/newperson34.png,stimsday2details/new34.png,stimsday2details/gift19.png,stimsday2details/n19.png,stimsday2details/cn19.png,stimsday2details/t19.png,stimsday2details/ct19.png,0,9,9,9,,,,,0,0,0,0,,,,,,,,,,,,,,,,,,,,,,,1331.7577540157363,None,,,,,,,,,,,,,,,,,,,,,,,,,,,,,,,,,,,,,,,,,,,,,,,,,,,,,,,,,,,,,,,,,,,,,,,,,,,,,,,,,,,,,,,,,,,001,34,2020_Jan_08_0935,viewing,3.1.2,59.94832306332808,
north.png,stims/wedding-19.1a.mp4,stims/wedding-19.1b.mp4,stims/wedding-19.2a.mp4,stims/wedding-19.3a.mp4,stims/wedding-19.4a.mp4,stims/wedding-19.5.mp4,stimsday2details/newegg18.png,stimsday2details/egg19.png,stimsday2details/couple19.png,stimsday2details/newperson34.png,stimsday2details/new34.png,stimsday2details/gift19.png,stimsday2details/n19.png,stimsday2details/cn19.png,stimsday2details/t19.png,stimsday2details/ct19.png,0,9,9,9,,,,,,,,,0,0,0,0,,,,,,,,,,,,,,,,,,,,,3.0009565195068717,None,1341.990388958715,1366.9907622383907,1366.9907622383907,None,1375.9904880728573,1392.9894020445645,1392.9894020445645,None,1415.9889199826866,None,1439.988621876575,None,,,,,,,,,,,,,,,,,,,,,,,,,,,,,,,,,,,,,,,,,,,,,,,,,,,,,,,,,,,,,,,,,,,,,,,,,,,,,001,34,2020_Jan_08_0935,viewing,3.1.2,59.94832306332808,
north.png,stims/wedding-19.1a.mp4,stims/wedding-19.1b.mp4,stims/wedding-19.2a.mp4,stims/wedding-19.3a.mp4,stims/wedding-19.4a.mp4,stims/wedding-19.5.mp4,stimsday2details/newegg18.png,stimsday2details/egg19.png,stimsday2details/couple19.png,stimsday2details/newperson34.png,stimsday2details/new34.png,stimsday2details/gift19.png,stimsday2details/n19.png,stimsday2details/cn19.png,stimsday2details/t19.png,stimsday2details/ct19.png,0,9,9,9,,,,,,,,,,,,,0,0,0,0,,,,,,,,,,,,,,,,,,,,,,,,,,,,,,,None,None,None,None,None,None,None,None,None,None,None,None,None,None,None,None,None,None,None,,None,None,None,,None,None,,,,,,,,,,,,,,,,,,,,,,,,,,,,,,,,,,,,,,,,,,,,,,,,,,,001,34,2020_Jan_08_0935,viewing,3.1.2,59.94832306332808,
north.png,stims/wedding-19.1a.mp4,stims/wedding-19.1b.mp4,stims/wedding-19.2a.mp4,stims/wedding-19.3a.mp4,stims/wedding-19.4a.mp4,stims/wedding-19.5.mp4,stimsday2details/newegg18.png,stimsday2details/egg19.png,stimsday2details/couple19.png,stimsday2details/newperson34.png,stimsday2details/new34.png,stimsday2details/gift19.png,stimsday2details/n19.png,stimsday2details/cn19.png,stimsday2details/t19.png,stimsday2details/ct19.png,0,9,9,9,,,,,,,,,,,,,,,,,,,,,,,,,,,,,,,,,,,,,,,,,,,,,,,,,,,,,,,,,,,,,,,,,,,,,,,,,3.9929524064064026e-05,None,None,,1464.4398581562564,None,1464.4398581562564,None,1464.4398581562564,None,1466.43934220355,None,2,1.0185839906334877,1466.43934220355,None,1466.43934220355,None,1468.4393872907385,None,1468.4393872907385,None,2,0.9390588728711009,1468.4393872907385,None,2,0.9972852291539311,1470.4434513989836,None,1470.4434513989836,None,1470.4434513989836,None,1472.4385983813554,None,1472.4385983813554,None,3,0.8534363526850939,1472.4385983813554,None,1474.4437378235161,None,1474.4437378235161,None,2,1.0845741517841816,1474.4437378235161,None,001,34,2020_Jan_08_0935,viewing,3.1.2,59.94832306332808,
north.png,stims/wedding-17.1a.mp4,stims/wedding-17.1b.mp4,stims/wedding-17.2b.mp4,stims/wedding-17.3b.mp4,stims/wedding-17.4b.mp4,stims/wedding-17.5.mp4,stimsday2details/painting17.png,stimsday2details/newpainting17.png,stimsday2details/couple17.png,stimsday2details/newperson35.png,stimsday2details/new35.png,stimsday2details/gift17.png,stimsday2details/n17.png,stimsday2details/cn17.png,stimsday2details/ct17.png,stimsday2details/t17.png,0,10,10,10,0,0,0,0,,,,,,,,,,,,,,,,,,,,,,,,,None,None,,,,,,,,,,,,,,,,,,,,,,,,,,,,,,,,,,,,,,,,,,,,,,,,,,,,,,,,,,,,,,,,,,,,,,,,,,,,,,,,,,,,,,,,,,,,,001,34,2020_Jan_08_0935,viewing,3.1.2,59.94832306332808,
north.png,stims/wedding-17.1a.mp4,stims/wedding-17.1b.mp4,stims/wedding-17.2b.mp4,stims/wedding-17.3b.mp4,stims/wedding-17.4b.mp4,stims/wedding-17.5.mp4,stimsday2details/painting17.png,stimsday2details/newpainting17.png,stimsday2details/couple17.png,stimsday2details/newperson35.png,stimsday2details/new35.png,stimsday2details/gift17.png,stimsday2details/n17.png,stimsday2details/cn17.png,stimsday2details/ct17.png,stimsday2details/t17.png,0,10,10,10,,,,,0,0,0,0,,,,,,,,,,,,,,,,,,,,,,,1476.688674592413,None,,,,,,,,,,,,,,,,,,,,,,,,,,,,,,,,,,,,,,,,,,,,,,,,,,,,,,,,,,,,,,,,,,,,,,,,,,,,,,,,,,,,,,,,,,,001,34,2020_Jan_08_0935,viewing,3.1.2,59.94832306332808,
north.png,stims/wedding-17.1a.mp4,stims/wedding-17.1b.mp4,stims/wedding-17.2b.mp4,stims/wedding-17.3b.mp4,stims/wedding-17.4b.mp4,stims/wedding-17.5.mp4,stimsday2details/painting17.png,stimsday2details/newpainting17.png,stimsday2details/couple17.png,stimsday2details/newperson35.png,stimsday2details/new35.png,stimsday2details/gift17.png,stimsday2details/n17.png,stimsday2details/cn17.png,stimsday2details/ct17.png,stimsday2details/t17.png,0,10,10,10,,,,,,,,,0,0,0,0,,,,,,,,,,,,,,,,,,,,,2.99524509254843,None,1486.93900940381,None,1511.954701313749,None,1520.9548636805266,None,1537.9542045081034,1560.9380688583478,1560.9546070210636,None,1584.953536029905,None,,,,,,,,,,,,,,,,,,,,,,,,,,,,,,,,,,,,,,,,,,,,,,,,,,,,,,,,,,,,,,,,,,,,,,,,,,,,,001,34,2020_Jan_08_0935,viewing,3.1.2,59.94832306332808,
north.png,stims/wedding-17.1a.mp4,stims/wedding-17.1b.mp4,stims/wedding-17.2b.mp4,stims/wedding-17.3b.mp4,stims/wedding-17.4b.mp4,stims/wedding-17.5.mp4,stimsday2details/painting17.png,stimsday2details/newpainting17.png,stimsday2details/couple17.png,stimsday2details/newperson35.png,stimsday2details/new35.png,stimsday2details/gift17.png,stimsday2details/n17.png,stimsday2details/cn17.png,stimsday2details/ct17.png,stimsday2details/t17.png,0,10,10,10,,,,,,,,,,,,,0,0,0,0,,,,,,,,,,,,,,,,,,,,,,,,,,,,,,,None,None,None,None,None,None,None,None,None,None,None,None,None,None,None,None,None,None,None,,None,None,None,,None,None,,,,,,,,,,,,,,,,,,,,,,,,,,,,,,,,,,,,,,,,,,,,,,,,,,,001,34,2020_Jan_08_0935,viewing,3.1.2,59.94832306332808,
north.png,stims/wedding-17.1a.mp4,stims/wedding-17.1b.mp4,stims/wedding-17.2b.mp4,stims/wedding-17.3b.mp4,stims/wedding-17.4b.mp4,stims/wedding-17.5.mp4,stimsday2details/painting17.png,stimsday2details/newpainting17.png,stimsday2details/couple17.png,stimsday2details/newperson35.png,stimsday2details/new35.png,stimsday2details/gift17.png,stimsday2details/n17.png,stimsday2details/cn17.png,stimsday2details/ct17.png,stimsday2details/t17.png,0,10,10,10,,,,,,,,,,,,,,,,,,,,,,,,,,,,,,,,,,,,,,,,,,,,,,,,,,,,,,,,,,,,,,,,,,,,,,,,,2.8092414140701294e-05,None,2,0.8858019560575485,1609.1702816067263,None,1609.1702816067263,None,1609.1702816067263,None,1611.1531676677987,None,2,0.618768522515893,1611.1531676677987,None,1611.1531676677987,None,1613.1544472444803,None,1613.1544472444803,None,2,0.9852507235482335,1613.1544472444803,None,3,0.8864893112331629,1615.1537227099761,None,1615.1537227099761,None,1615.1537227099761,None,1617.153188011609,None,1617.153188011609,None,3,1.1742385188117623,1617.153188011609,None,1619.153376271017,None,1619.153376271017,None,2,1.0401085708290339,1619.153376271017,None,001,34,2020_Jan_08_0935,viewing,3.1.2,59.94832306332808,
south.png,stims/wedding-23.1a.mp4,stims/wedding-23.1b.mp4,stims/wedding-23.2b.mp4,stims/wedding-23.3a.mp4,stims/wedding-23.4b.mp4,stims/wedding-23.5.mp4,stimsday2details/newpainting18.png,stimsday2details/painting23.png,stimsday2details/couple23.png,stimsday2details/newperson36.png,stimsday2details/new36.png,stimsday2details/gift23.png,stimsday2details/n23.png,stimsday2details/cn23.png,stimsday2details/ct23.png,stimsday2details/t23.png,0,11,11,11,0,0,0,0,,,,,,,,,,,,,,,,,,,,,,,,,1621.1545059112832,None,,,,,,,,,,,,,,,,,,,,,,,,,,,,,,,,,,,,,,,,,,,,,,,,,,,,,,,,,,,,,,,,,,,,,,,,,,,,,,,,,,,,,,,,,,,,,001,34,2020_Jan_08_0935,viewing,3.1.2,59.94832306332808,
south.png,stims/wedding-23.1a.mp4,stims/wedding-23.1b.mp4,stims/wedding-23.2b.mp4,stims/wedding-23.3a.mp4,stims/wedding-23.4b.mp4,stims/wedding-23.5.mp4,stimsday2details/newpainting18.png,stimsday2details/painting23.png,stimsday2details/couple23.png,stimsday2details/newperson36.png,stimsday2details/new36.png,stimsday2details/gift23.png,stimsday2details/n23.png,stimsday2details/cn23.png,stimsday2details/ct23.png,stimsday2details/t23.png,0,11,11,11,,,,,0,0,0,0,,,,,,,,,,,,,,,,,,,,,,,None,None,,,,,,,,,,,,,,,,,,,,,,,,,,,,,,,,,,,,,,,,,,,,,,,,,,,,,,,,,,,,,,,,,,,,,,,,,,,,,,,,,,,,,,,,,,,001,34,2020_Jan_08_0935,viewing,3.1.2,59.94832306332808,
south.png,stims/wedding-23.1a.mp4,stims/wedding-23.1b.mp4,stims/wedding-23.2b.mp4,stims/wedding-23.3a.mp4,stims/wedding-23.4b.mp4,stims/wedding-23.5.mp4,stimsday2details/newpainting18.png,stimsday2details/painting23.png,stimsday2details/couple23.png,stimsday2details/newperson36.png,stimsday2details/new36.png,stimsday2details/gift23.png,stimsday2details/n23.png,stimsday2details/cn23.png,stimsday2details/ct23.png,stimsday2details/t23.png,0,11,11,11,,,,,,,,,0,0,0,0,,,,,,,,,,,,,,,,,,,,,None,None,None,None,None,None,None,None,None,None,None,None,None,None,,,,,,,,,,,,,,,,,,,,,,,,,,,,,,,,,,,,,,,,,,,,,,,,,,,,,,,,,,,,,,,,,,,,,,,,,,,,,001,34,2020_Jan_08_0935,viewing,3.1.2,59.94832306332808,
south.png,stims/wedding-23.1a.mp4,stims/wedding-23.1b.mp4,stims/wedding-23.2b.mp4,stims/wedding-23.3a.mp4,stims/wedding-23.4b.mp4,stims/wedding-23.5.mp4,stimsday2details/newpainting18.png,stimsday2details/painting23.png,stimsday2details/couple23.png,stimsday2details/newperson36.png,stimsday2details/new36.png,stimsday2details/gift23.png,stimsday2details/n23.png,stimsday2details/cn23.png,stimsday2details/ct23.png,stimsday2details/t23.png,0,11,11,11,,,,,,,,,,,,,0,0,0,0,,,,,,,,,,,,,,,,,,,,,,,,,,,,,,,2.923391359858215,None,1634.837077778764,1659.9200435448438,1659.937093762681,None,1668.9369552507997,None,1685.9198319735005,1689.920108312741,1689.920108312741,1712.9192718714476,1712.9352078754455,1716.9192255213857,1716.9192255213857,None,1740.9361375682056,None,['2'],[3.722565710544586],1684.9363931855187,1689.920108312741,['2'],[2.9676250256597996],1711.935841837898,1716.9192255213857,,,,,,,,,,,,,,,,,,,,,,,,,,,,,,,,,,,,,,,,,,,,,,,,,,,001,34,2020_Jan_08_0935,viewing,3.1.2,59.94832306332808,
south.png,stims/wedding-23.1a.mp4,stims/wedding-23.1b.mp4,stims/wedding-23.2b.mp4,stims/wedding-23.3a.mp4,stims/wedding-23.4b.mp4,stims/wedding-23.5.mp4,stimsday2details/newpainting18.png,stimsday2details/painting23.png,stimsday2details/couple23.png,stimsday2details/newperson36.png,stimsday2details/new36.png,stimsday2details/gift23.png,stimsday2details/n23.png,stimsday2details/cn23.png,stimsday2details/ct23.png,stimsday2details/t23.png,0,11,11,11,,,,,,,,,,,,,,,,,,,,,,,,,,,,,,,,,,,,,,,,,,,,,,,,,,,,,,,,,,,,,,,,,,,,,,,,,4.325713962316513e-05,None,2,0.8393547786399722,1762.285057076253,None,1762.285057076253,None,1762.285057076253,None,1764.2886916371062,None,3,0.6523321196436882,1764.2886916371062,None,1764.2886916371062,None,1766.2890497604385,None,1766.2890497604385,None,2,0.9312829226255417,1766.2890497604385,None,3,1.3868899457156658,1768.2849096069112,None,1768.2849096069112,None,1768.2849096069112,None,1770.2857273509726,None,1770.2857273509726,None,3,1.2391899563372135,1770.2857273509726,None,1772.285579930991,None,1772.285579930991,None,2,1.5841409023851156,1772.285579930991,None,001,34,2020_Jan_08_0935,viewing,3.1.2,59.94832306332808,
