northOrSouth,stimFile1a,stimFile1b,stimFile2,stimFile3,stimFile4,stimFile5,Qeggpainting1,Qeggpainting2,Qcharacter1,Qcharacter2,Qgift1,Qgift2,Qname1,Qname2,Qtheme1,Qtheme2,trials.thisRepN,trials.thisTrialN,trials.thisN,trials.thisIndex,South.thisRepN,South.thisTrialN,South.thisN,South.thisIndex,North.thisRepN,North.thisTrialN,North.thisN,North.thisIndex,noQtrials.thisRepN,noQtrials.thisTrialN,noQtrials.thisN,noQtrials.thisIndex,Qtrials.thisRepN,Qtrials.thisTrialN,Qtrials.thisN,Qtrials.thisIndex,text.started,text.stopped,prep_trigger.keys,prep_trigger.rt,prep_trigger.started,prep_trigger.stopped,waiting.started,waiting.stopped,trigger.keys,trigger.rt,trigger.started,trigger.stopped,southCueImage.started,southCueImage.stopped,northCueImage.started,northCueImage.stopped,trialNoQs.started,trialNoQs.stopped,vid1a.started,vid1a.stopped,vid1b.started,vid1b.stopped,vid2.started,vid2.stopped,vid3.started,vid3.stopped,vid4.started,vid4.stopped,vid5.started,vid5.stopped,ISI2.started,ISI2.stopped,vid1a_q.started,vid1a_q.stopped,vid1b_q.started,vid1b_q.stopped,vid2_q.started,vid2_q.stopped,l2q.started,l2q.stopped,vid3_q.started,vid3_q.stopped,l3q.started,l3q.stopped,vid4_q.started,vid4_q.stopped,vid5_q.started,vid5_q.stopped,key_resp_2.keys,key_resp_2.rt,key_resp_2.started,key_resp_2.stopped,key_resp_3.keys,key_resp_3.rt,key_resp_3.started,key_resp_3.stopped,ISI7.started,ISI7.stopped,nameQresp.keys,nameQresp.rt,nameQresp.started,nameQresp.stopped,nameQ1.started,nameQ1.stopped,nameQ2.started,nameQ2.stopped,eggPainting1.started,eggPainting1.stopped,eggPaintingQresp.keys,eggPaintingQresp.rt,eggPaintingQresp.started,eggPaintingQresp.stopped,eggPainting2.started,eggPainting2.stopped,character1.started,character1.stopped,character2.started,character2.stopped,Qcharacter.keys,Qcharacter.rt,Qcharacter.started,Qcharacter.stopped,themeQresp.keys,themeQresp.rt,themeQresp.started,themeQresp.stopped,themeQ1.started,themeQ1.stopped,themeQ2.started,themeQ2.stopped,gift1.started,gift1.stopped,gift2.started,gift2.stopped,giftQresp.keys,giftQresp.rt,giftQresp.started,giftQresp.stopped,northorsouth1.started,northorsouth1.stopped,northorsouth2.started,northorsouth2.stopped,northOrSouthQ.keys,northOrSouthQ.rt,northOrSouthQ.started,northOrSouthQ.stopped,session,participant,date,expName,psychopyVersion,frameRate,
,,,,,,,,,,,,,,,,,,,,,,,,,,,,,,,,,,,,,7.019298269005958,None,g,0.4914646870456636,7.019298269005958,None,,,,,,,,,,,,,,,,,,,,,,,,,,,,,,,,,,,,,,,,,,,,,,,,,,,,,,,,,,,,,,,,,,,,,,,,,,,,,,,,,,,,,,,,,,,,,,,,,,,,,001,23,2019_Oct_29_1134,viewing,3.1.2,60.09842882980916,
,,,,,,,,,,,,,,,,,,,,,,,,,,,,,,,,,,,,,,,,,,,7.518834294052795,None,equal,19.439325578976423,7.518834294052795,None,,,,,,,,,,,,,,,,,,,,,,,,,,,,,,,,,,,,,,,,,,,,,,,,,,,,,,,,,,,,,,,,,,,,,,,,,,,,,,,,,,,,,,,,,,,,,,,001,23,2019_Oct_29_1134,viewing,3.1.2,60.09842882980916,
south.png,stims/wedding-28.1a.mp4,stims/wedding-28.1b.mp4,stims/wedding-28.2a.mp4,stims/wedding-28.3b.mp4,stims/wedding-28.4a.mp4,stims/wedding-28.5.mp4,stimsday2details/newegg13.png,stimsday2details/egg28.png,stimsday2details/newperson25.png,stimsday2details/couple28.png,stimsday2details/new25.png,stimsday2details/gift28.png,stimsday2details/n28.png,stimsday2details/cn28.png,stimsday2details/t28.png,stimsday2details/ct28.png,0,0,0,0,0,0,0,0,,,,,,,,,,,,,,,,,,,,,,,,,27.001952728023753,None,,,,,,,,,,,,,,,,,,,,,,,,,,,,,,,,,,,,,,,,,,,,,,,,,,,,,,,,,,,,,,,,,,,,,,,,,,,,,,,,,,,,,,,,,,,,,001,23,2019_Oct_29_1134,viewing,3.1.2,60.09842882980916,
south.png,stims/wedding-28.1a.mp4,stims/wedding-28.1b.mp4,stims/wedding-28.2a.mp4,stims/wedding-28.3b.mp4,stims/wedding-28.4a.mp4,stims/wedding-28.5.mp4,stimsday2details/newegg13.png,stimsday2details/egg28.png,stimsday2details/newperson25.png,stimsday2details/couple28.png,stimsday2details/new25.png,stimsday2details/gift28.png,stimsday2details/n28.png,stimsday2details/cn28.png,stimsday2details/t28.png,stimsday2details/ct28.png,0,0,0,0,,,,,0,0,0,0,,,,,,,,,,,,,,,,,,,,,,,None,None,,,,,,,,,,,,,,,,,,,,,,,,,,,,,,,,,,,,,,,,,,,,,,,,,,,,,,,,,,,,,,,,,,,,,,,,,,,,,,,,,,,,,,,,,,,001,23,2019_Oct_29_1134,viewing,3.1.2,60.09842882980916,
south.png,stims/wedding-28.1a.mp4,stims/wedding-28.1b.mp4,stims/wedding-28.2a.mp4,stims/wedding-28.3b.mp4,stims/wedding-28.4a.mp4,stims/wedding-28.5.mp4,stimsday2details/newegg13.png,stimsday2details/egg28.png,stimsday2details/newperson25.png,stimsday2details/couple28.png,stimsday2details/new25.png,stimsday2details/gift28.png,stimsday2details/n28.png,stimsday2details/cn28.png,stimsday2details/t28.png,stimsday2details/ct28.png,0,0,0,0,,,,,,,,,0,0,0,0,,,,,,,,,,,,,,,,,,,,,None,None,None,None,None,None,None,None,None,None,None,None,None,None,,,,,,,,,,,,,,,,,,,,,,,,,,,,,,,,,,,,,,,,,,,,,,,,,,,,,,,,,,,,,,,,,,,,,,,,,,,,,001,23,2019_Oct_29_1134,viewing,3.1.2,60.09842882980916,
south.png,stims/wedding-28.1a.mp4,stims/wedding-28.1b.mp4,stims/wedding-28.2a.mp4,stims/wedding-28.3b.mp4,stims/wedding-28.4a.mp4,stims/wedding-28.5.mp4,stimsday2details/newegg13.png,stimsday2details/egg28.png,stimsday2details/newperson25.png,stimsday2details/couple28.png,stimsday2details/new25.png,stimsday2details/gift28.png,stimsday2details/n28.png,stimsday2details/cn28.png,stimsday2details/t28.png,stimsday2details/ct28.png,0,0,0,0,,,,,,,,,,,,,0,0,0,0,,,,,,,,,,,,,,,,,,,,,,,,,,,,,,,2.802613069943618,None,40.00110404001316,65.2005450350116,65.2005450350116,None,74.2009918410331,91.20099098602077,91.20099098602077,95.20410071499646,95.21669246902457,118.20085055800155,118.20085055800155,122.20421989203896,122.2172631570138,146.200101895025,146.200101895025,None,['2'],[2.884127910947427],90.20182015403407,95.20410071499646,['1'],[2.689392810978461],117.20034402405145,122.20421989203896,,,,,,,,,,,,,,,,,,,,,,,,,,,,,,,,,,,,,,,,,,,,,,,,,,,001,23,2019_Oct_29_1134,viewing,3.1.2,60.09842882980916,
south.png,stims/wedding-28.1a.mp4,stims/wedding-28.1b.mp4,stims/wedding-28.2a.mp4,stims/wedding-28.3b.mp4,stims/wedding-28.4a.mp4,stims/wedding-28.5.mp4,stimsday2details/newegg13.png,stimsday2details/egg28.png,stimsday2details/newperson25.png,stimsday2details/couple28.png,stimsday2details/new25.png,stimsday2details/gift28.png,stimsday2details/n28.png,stimsday2details/cn28.png,stimsday2details/t28.png,stimsday2details/ct28.png,0,0,0,0,,,,,,,,,,,,,,,,,,,,,,,,,,,,,,,,,,,,,,,,,,,,,,,,,,,,,,,,,,,,,,,,,,,,,,,,,2.7984962798655033e-05,None,1,1.3728640549816191,167.34977849700954,None,167.34977849700954,None,167.34977849700954,None,169.3323801259976,None,2,0.9237339819665067,169.3323801259976,None,169.3323801259976,None,171.33210685499944,None,171.33210685499944,None,2,1.1852809919510037,171.33210685499944,None,1,0.9901170509983785,173.33271799102658,None,173.33271799102658,None,173.33271799102658,None,175.3211137590115,None,175.3211137590115,None,2,0.7676607400062494,175.3211137590115,None,177.32094174000667,None,177.32094174000667,None,2,0.7899058479815722,177.32094174000667,None,001,23,2019_Oct_29_1134,viewing,3.1.2,60.09842882980916,
north.png,stims/wedding-22.1a.mp4,stims/wedding-22.1b.mp4,stims/wedding-22.2a.mp4,stims/wedding-22.3a.mp4,stims/wedding-22.4a.mp4,stims/wedding-22.5.mp4,stimsday2details/egg22.png,stimsday2details/newegg14.png,stimsday2details/newperson26.png,stimsday2details/couple22.png,stimsday2details/gift22.png,stimsday2details/new26.png,stimsday2details/cn22.png,stimsday2details/n22.png,stimsday2details/ct22.png,stimsday2details/t22.png,0,1,1,1,0,0,0,0,,,,,,,,,,,,,,,,,,,,,,,,,None,None,,,,,,,,,,,,,,,,,,,,,,,,,,,,,,,,,,,,,,,,,,,,,,,,,,,,,,,,,,,,,,,,,,,,,,,,,,,,,,,,,,,,,,,,,,,,,001,23,2019_Oct_29_1134,viewing,3.1.2,60.09842882980916,
north.png,stims/wedding-22.1a.mp4,stims/wedding-22.1b.mp4,stims/wedding-22.2a.mp4,stims/wedding-22.3a.mp4,stims/wedding-22.4a.mp4,stims/wedding-22.5.mp4,stimsday2details/egg22.png,stimsday2details/newegg14.png,stimsday2details/newperson26.png,stimsday2details/couple22.png,stimsday2details/gift22.png,stimsday2details/new26.png,stimsday2details/cn22.png,stimsday2details/n22.png,stimsday2details/ct22.png,stimsday2details/t22.png,0,1,1,1,,,,,0,0,0,0,,,,,,,,,,,,,,,,,,,,,,,179.36580899503315,None,,,,,,,,,,,,,,,,,,,,,,,,,,,,,,,,,,,,,,,,,,,,,,,,,,,,,,,,,,,,,,,,,,,,,,,,,,,,,,,,,,,,,,,,,,,001,23,2019_Oct_29_1134,viewing,3.1.2,60.09842882980916,
north.png,stims/wedding-22.1a.mp4,stims/wedding-22.1b.mp4,stims/wedding-22.2a.mp4,stims/wedding-22.3a.mp4,stims/wedding-22.4a.mp4,stims/wedding-22.5.mp4,stimsday2details/egg22.png,stimsday2details/newegg14.png,stimsday2details/newperson26.png,stimsday2details/couple22.png,stimsday2details/gift22.png,stimsday2details/new26.png,stimsday2details/cn22.png,stimsday2details/n22.png,stimsday2details/ct22.png,stimsday2details/t22.png,0,1,1,1,,,,,,,,,0,0,0,0,,,,,,,,,,,,,,,,,,,,,3.247017349000089,None,189.66555057902588,214.41595884604612,214.4324283520109,None,223.43287372303894,240.41960818105144,240.4322905340232,263.4196758720209,263.4323631460429,287.419530675048,287.43162260903046,None,,,,,,,,,,,,,,,,,,,,,,,,,,,,,,,,,,,,,,,,,,,,,,,,,,,,,,,,,,,,,,,,,,,,,,,,,,,,,001,23,2019_Oct_29_1134,viewing,3.1.2,60.09842882980916,
north.png,stims/wedding-22.1a.mp4,stims/wedding-22.1b.mp4,stims/wedding-22.2a.mp4,stims/wedding-22.3a.mp4,stims/wedding-22.4a.mp4,stims/wedding-22.5.mp4,stimsday2details/egg22.png,stimsday2details/newegg14.png,stimsday2details/newperson26.png,stimsday2details/couple22.png,stimsday2details/gift22.png,stimsday2details/new26.png,stimsday2details/cn22.png,stimsday2details/n22.png,stimsday2details/ct22.png,stimsday2details/t22.png,0,1,1,1,,,,,,,,,,,,,0,0,0,0,,,,,,,,,,,,,,,,,,,,,,,,,,,,,,,None,None,None,None,None,None,None,None,None,None,None,None,None,None,None,None,None,None,None,,None,None,None,,None,None,,,,,,,,,,,,,,,,,,,,,,,,,,,,,,,,,,,,,,,,,,,,,,,,,,,001,23,2019_Oct_29_1134,viewing,3.1.2,60.09842882980916,
north.png,stims/wedding-22.1a.mp4,stims/wedding-22.1b.mp4,stims/wedding-22.2a.mp4,stims/wedding-22.3a.mp4,stims/wedding-22.4a.mp4,stims/wedding-22.5.mp4,stimsday2details/egg22.png,stimsday2details/newegg14.png,stimsday2details/newperson26.png,stimsday2details/couple22.png,stimsday2details/gift22.png,stimsday2details/new26.png,stimsday2details/cn22.png,stimsday2details/n22.png,stimsday2details/ct22.png,stimsday2details/t22.png,0,1,1,1,,,,,,,,,,,,,,,,,,,,,,,,,,,,,,,,,,,,,,,,,,,,,,,,,,,,,,,,,,,,,,,,,,,,,,,,,3.083597403019667e-05,None,2,1.0118190899956971,311.02154500701,None,311.02154500701,None,311.02154500701,None,313.0146596250124,None,1,1.0853973489720374,313.0146596250124,None,313.0146596250124,None,315.01386168500176,None,315.01386168500176,None,2,0.9891592499916442,315.01386168500176,None,2,1.633089997980278,317.0147741160472,None,317.0147741160472,None,317.0147741160472,None,319.0147747450392,None,319.0147747450392,None,1,0.7716362869832665,319.0147747450392,None,321.0136271660449,None,321.0136271660449,None,1,0.8853067070012912,321.0136271660449,None,001,23,2019_Oct_29_1134,viewing,3.1.2,60.09842882980916,
north.png,stims/wedding-6.1a.mp4,stims/wedding-6.1b.mp4,stims/wedding-6.2a.mp4,stims/wedding-6.3a.mp4,stims/wedding-6.4a.mp4,stims/wedding-6.5.mp4,stimsday2details/newegg15.png,stimsday2details/egg6.png,stimsday2details/newperson27.png,stimsday2details/couple6.png,stimsday2details/gift6.png,stimsday2details/new27.png,stimsday2details/cn6.png,stimsday2details/n6.png,stimsday2details/t6.png,stimsday2details/ct6.png,0,2,2,2,0,0,0,0,,,,,,,,,,,,,,,,,,,,,,,,,None,None,,,,,,,,,,,,,,,,,,,,,,,,,,,,,,,,,,,,,,,,,,,,,,,,,,,,,,,,,,,,,,,,,,,,,,,,,,,,,,,,,,,,,,,,,,,,,001,23,2019_Oct_29_1134,viewing,3.1.2,60.09842882980916,
north.png,stims/wedding-6.1a.mp4,stims/wedding-6.1b.mp4,stims/wedding-6.2a.mp4,stims/wedding-6.3a.mp4,stims/wedding-6.4a.mp4,stims/wedding-6.5.mp4,stimsday2details/newegg15.png,stimsday2details/egg6.png,stimsday2details/newperson27.png,stimsday2details/couple6.png,stimsday2details/gift6.png,stimsday2details/new27.png,stimsday2details/cn6.png,stimsday2details/n6.png,stimsday2details/t6.png,stimsday2details/ct6.png,0,2,2,2,,,,,0,0,0,0,,,,,,,,,,,,,,,,,,,,,,,323.0805280760396,None,,,,,,,,,,,,,,,,,,,,,,,,,,,,,,,,,,,,,,,,,,,,,,,,,,,,,,,,,,,,,,,,,,,,,,,,,,,,,,,,,,,,,,,,,,,001,23,2019_Oct_29_1134,viewing,3.1.2,60.09842882980916,
north.png,stims/wedding-6.1a.mp4,stims/wedding-6.1b.mp4,stims/wedding-6.2a.mp4,stims/wedding-6.3a.mp4,stims/wedding-6.4a.mp4,stims/wedding-6.5.mp4,stimsday2details/newegg15.png,stimsday2details/egg6.png,stimsday2details/newperson27.png,stimsday2details/couple6.png,stimsday2details/gift6.png,stimsday2details/new27.png,stimsday2details/cn6.png,stimsday2details/n6.png,stimsday2details/t6.png,stimsday2details/ct6.png,0,2,2,2,,,,,,,,,0,0,0,0,,,,,,,,,,,,,,,,,,,,,3.1680203860159963,None,333.3301782050403,358.1656111400225,358.1656111400225,None,367.1804195730365,384.16389441204956,384.18065722100437,407.1666830650065,407.1805609340081,431.1630466930219,431.1630466930219,None,,,,,,,,,,,,,,,,,,,,,,,,,,,,,,,,,,,,,,,,,,,,,,,,,,,,,,,,,,,,,,,,,,,,,,,,,,,,,001,23,2019_Oct_29_1134,viewing,3.1.2,60.09842882980916,
north.png,stims/wedding-6.1a.mp4,stims/wedding-6.1b.mp4,stims/wedding-6.2a.mp4,stims/wedding-6.3a.mp4,stims/wedding-6.4a.mp4,stims/wedding-6.5.mp4,stimsday2details/newegg15.png,stimsday2details/egg6.png,stimsday2details/newperson27.png,stimsday2details/couple6.png,stimsday2details/gift6.png,stimsday2details/new27.png,stimsday2details/cn6.png,stimsday2details/n6.png,stimsday2details/t6.png,stimsday2details/ct6.png,0,2,2,2,,,,,,,,,,,,,0,0,0,0,,,,,,,,,,,,,,,,,,,,,,,,,,,,,,,None,None,None,None,None,None,None,None,None,None,None,None,None,None,None,None,None,None,None,,None,None,None,,None,None,,,,,,,,,,,,,,,,,,,,,,,,,,,,,,,,,,,,,,,,,,,,,,,,,,,001,23,2019_Oct_29_1134,viewing,3.1.2,60.09842882980916,
north.png,stims/wedding-6.1a.mp4,stims/wedding-6.1b.mp4,stims/wedding-6.2a.mp4,stims/wedding-6.3a.mp4,stims/wedding-6.4a.mp4,stims/wedding-6.5.mp4,stimsday2details/newegg15.png,stimsday2details/egg6.png,stimsday2details/newperson27.png,stimsday2details/couple6.png,stimsday2details/gift6.png,stimsday2details/new27.png,stimsday2details/cn6.png,stimsday2details/n6.png,stimsday2details/t6.png,stimsday2details/ct6.png,0,2,2,2,,,,,,,,,,,,,,,,,,,,,,,,,,,,,,,,,,,,,,,,,,,,,,,,,,,,,,,,,,,,,,,,,,,,,,,,,4.208402242511511e-05,None,2,0.9751682969508693,454.9627980570076,None,454.9627980570076,None,454.9627980570076,None,456.9622850420419,None,2,0.9195597170037217,456.9622850420419,None,456.9622850420419,None,458.96297962602694,None,458.96297962602694,None,2,1.1270383830415085,458.96297962602694,None,1,1.0232056030072272,460.95064374402864,None,460.95064374402864,None,460.95064374402864,None,462.9504171150038,None,462.9504171150038,None,1,0.9520798909943551,462.9504171150038,None,464.94536068302114,None,464.94536068302114,None,1,0.8523449270287529,464.94536068302114,None,001,23,2019_Oct_29_1134,viewing,3.1.2,60.09842882980916,
south.png,stims/wedding-38.1a.mp4,stims/wedding-38.1b.mp4,stims/wedding-38.2a.mp4,stims/wedding-38.3b.mp4,stims/wedding-38.4a.mp4,stims/wedding-38.5.mp4,stimsday2details/egg38.png,stimsday2details/newegg16.png,stimsday2details/couple38.png,stimsday2details/newperson28.png,stimsday2details/new28.png,stimsday2details/gift38.png,stimsday2details/n38.png,stimsday2details/cn38.png,stimsday2details/t38.png,stimsday2details/ct38.png,0,3,3,3,0,0,0,0,,,,,,,,,,,,,,,,,,,,,,,,,466.94531022704905,None,,,,,,,,,,,,,,,,,,,,,,,,,,,,,,,,,,,,,,,,,,,,,,,,,,,,,,,,,,,,,,,,,,,,,,,,,,,,,,,,,,,,,,,,,,,,,001,23,2019_Oct_29_1134,viewing,3.1.2,60.09842882980916,
south.png,stims/wedding-38.1a.mp4,stims/wedding-38.1b.mp4,stims/wedding-38.2a.mp4,stims/wedding-38.3b.mp4,stims/wedding-38.4a.mp4,stims/wedding-38.5.mp4,stimsday2details/egg38.png,stimsday2details/newegg16.png,stimsday2details/couple38.png,stimsday2details/newperson28.png,stimsday2details/new28.png,stimsday2details/gift38.png,stimsday2details/n38.png,stimsday2details/cn38.png,stimsday2details/t38.png,stimsday2details/ct38.png,0,3,3,3,,,,,0,0,0,0,,,,,,,,,,,,,,,,,,,,,,,None,None,,,,,,,,,,,,,,,,,,,,,,,,,,,,,,,,,,,,,,,,,,,,,,,,,,,,,,,,,,,,,,,,,,,,,,,,,,,,,,,,,,,,,,,,,,,001,23,2019_Oct_29_1134,viewing,3.1.2,60.09842882980916,
south.png,stims/wedding-38.1a.mp4,stims/wedding-38.1b.mp4,stims/wedding-38.2a.mp4,stims/wedding-38.3b.mp4,stims/wedding-38.4a.mp4,stims/wedding-38.5.mp4,stimsday2details/egg38.png,stimsday2details/newegg16.png,stimsday2details/couple38.png,stimsday2details/newperson28.png,stimsday2details/new28.png,stimsday2details/gift38.png,stimsday2details/n38.png,stimsday2details/cn38.png,stimsday2details/t38.png,stimsday2details/ct38.png,0,3,3,3,,,,,,,,,0,0,0,0,,,,,,,,,,,,,,,,,,,,,3.1554929080302827,None,477.27902588102734,502.1337058560457,502.1460631790105,None,511.14475965104066,528.1322586160386,528.1452959370217,551.1440514890128,551.1440514890128,None,575.1441631420166,None,,,,,,,,,,,,,,,,,,,,,,,,,,,,,,,,,,,,,,,,,,,,,,,,,,,,,,,,,,,,,,,,,,,,,,,,,,,,,001,23,2019_Oct_29_1134,viewing,3.1.2,60.09842882980916,
south.png,stims/wedding-38.1a.mp4,stims/wedding-38.1b.mp4,stims/wedding-38.2a.mp4,stims/wedding-38.3b.mp4,stims/wedding-38.4a.mp4,stims/wedding-38.5.mp4,stimsday2details/egg38.png,stimsday2details/newegg16.png,stimsday2details/couple38.png,stimsday2details/newperson28.png,stimsday2details/new28.png,stimsday2details/gift38.png,stimsday2details/n38.png,stimsday2details/cn38.png,stimsday2details/t38.png,stimsday2details/ct38.png,0,3,3,3,,,,,,,,,,,,,0,0,0,0,,,,,,,,,,,,,,,,,,,,,,,,,,,,,,,None,None,None,None,None,None,None,None,None,None,None,None,None,None,None,None,None,None,None,,None,None,None,,None,None,,,,,,,,,,,,,,,,,,,,,,,,,,,,,,,,,,,,,,,,,,,,,,,,,,,001,23,2019_Oct_29_1134,viewing,3.1.2,60.09842882980916,
south.png,stims/wedding-38.1a.mp4,stims/wedding-38.1b.mp4,stims/wedding-38.2a.mp4,stims/wedding-38.3b.mp4,stims/wedding-38.4a.mp4,stims/wedding-38.5.mp4,stimsday2details/egg38.png,stimsday2details/newegg16.png,stimsday2details/couple38.png,stimsday2details/newperson28.png,stimsday2details/new28.png,stimsday2details/gift38.png,stimsday2details/n38.png,stimsday2details/cn38.png,stimsday2details/t38.png,stimsday2details/ct38.png,0,3,3,3,,,,,,,,,,,,,,,,,,,,,,,,,,,,,,,,,,,,,,,,,,,,,,,,,,,,,,,,,,,,,,,,,,,,,,,,,4.226103192195296e-05,None,1,1.0066930429893546,598.9601963250316,None,598.9601963250316,None,598.9601963250316,None,600.9437945910031,None,1,0.8684783789794892,600.9437945910031,None,600.9437945910031,None,602.9482197170146,None,602.9482197170146,None,1,1.3025920939981006,602.9482197170146,None,1,0.9053659879718907,604.9444452830357,None,604.9444452830357,None,604.9444452830357,None,606.9486755540129,None,606.9486755540129,None,2,0.8140837560058571,606.9486755540129,None,608.9444572520442,None,608.9444572520442,None,2,1.417583845963236,608.9444572520442,None,001,23,2019_Oct_29_1134,viewing,3.1.2,60.09842882980916,
south.png,stims/wedding-2.1a.mp4,stims/wedding-2.1b.mp4,stims/wedding-2.2b.mp4,stims/wedding-2.3a.mp4,stims/wedding-2.4b.mp4,stims/wedding-2.5.mp4,stimsday2details/newpainting13.png,stimsday2details/painting2.png,stimsday2details/couple2.png,stimsday2details/newperson29.png,stimsday2details/gift2.png,stimsday2details/new29.png,stimsday2details/cn2.png,stimsday2details/n2.png,stimsday2details/t2.png,stimsday2details/ct2.png,0,4,4,4,0,0,0,0,,,,,,,,,,,,,,,,,,,,,,,,,610.9434857330052,None,,,,,,,,,,,,,,,,,,,,,,,,,,,,,,,,,,,,,,,,,,,,,,,,,,,,,,,,,,,,,,,,,,,,,,,,,,,,,,,,,,,,,,,,,,,,,001,23,2019_Oct_29_1134,viewing,3.1.2,60.09842882980916,
south.png,stims/wedding-2.1a.mp4,stims/wedding-2.1b.mp4,stims/wedding-2.2b.mp4,stims/wedding-2.3a.mp4,stims/wedding-2.4b.mp4,stims/wedding-2.5.mp4,stimsday2details/newpainting13.png,stimsday2details/painting2.png,stimsday2details/couple2.png,stimsday2details/newperson29.png,stimsday2details/gift2.png,stimsday2details/new29.png,stimsday2details/cn2.png,stimsday2details/n2.png,stimsday2details/t2.png,stimsday2details/ct2.png,0,4,4,4,,,,,0,0,0,0,,,,,,,,,,,,,,,,,,,,,,,None,None,,,,,,,,,,,,,,,,,,,,,,,,,,,,,,,,,,,,,,,,,,,,,,,,,,,,,,,,,,,,,,,,,,,,,,,,,,,,,,,,,,,,,,,,,,,001,23,2019_Oct_29_1134,viewing,3.1.2,60.09842882980916,
south.png,stims/wedding-2.1a.mp4,stims/wedding-2.1b.mp4,stims/wedding-2.2b.mp4,stims/wedding-2.3a.mp4,stims/wedding-2.4b.mp4,stims/wedding-2.5.mp4,stimsday2details/newpainting13.png,stimsday2details/painting2.png,stimsday2details/couple2.png,stimsday2details/newperson29.png,stimsday2details/gift2.png,stimsday2details/new29.png,stimsday2details/cn2.png,stimsday2details/n2.png,stimsday2details/t2.png,stimsday2details/ct2.png,0,4,4,4,,,,,,,,,0,0,0,0,,,,,,,,,,,,,,,,,,,,,3.007897680043243,None,621.1776063070283,None,646.193094354996,None,655.1941748509998,None,672.192872639047,695.1794385490357,695.1933083870099,719.1811788280029,719.1931207620073,None,,,,,,,,,,,,,,,,,,,,,,,,,,,,,,,,,,,,,,,,,,,,,,,,,,,,,,,,,,,,,,,,,,,,,,,,,,,,,001,23,2019_Oct_29_1134,viewing,3.1.2,60.09842882980916,
south.png,stims/wedding-2.1a.mp4,stims/wedding-2.1b.mp4,stims/wedding-2.2b.mp4,stims/wedding-2.3a.mp4,stims/wedding-2.4b.mp4,stims/wedding-2.5.mp4,stimsday2details/newpainting13.png,stimsday2details/painting2.png,stimsday2details/couple2.png,stimsday2details/newperson29.png,stimsday2details/gift2.png,stimsday2details/new29.png,stimsday2details/cn2.png,stimsday2details/n2.png,stimsday2details/t2.png,stimsday2details/ct2.png,0,4,4,4,,,,,,,,,,,,,0,0,0,0,,,,,,,,,,,,,,,,,,,,,,,,,,,,,,,None,None,None,None,None,None,None,None,None,None,None,None,None,None,None,None,None,None,None,,None,None,None,,None,None,,,,,,,,,,,,,,,,,,,,,,,,,,,,,,,,,,,,,,,,,,,,,,,,,,,001,23,2019_Oct_29_1134,viewing,3.1.2,60.09842882980916,
south.png,stims/wedding-2.1a.mp4,stims/wedding-2.1b.mp4,stims/wedding-2.2b.mp4,stims/wedding-2.3a.mp4,stims/wedding-2.4b.mp4,stims/wedding-2.5.mp4,stimsday2details/newpainting13.png,stimsday2details/painting2.png,stimsday2details/couple2.png,stimsday2details/newperson29.png,stimsday2details/gift2.png,stimsday2details/new29.png,stimsday2details/cn2.png,stimsday2details/n2.png,stimsday2details/t2.png,stimsday2details/ct2.png,0,4,4,4,,,,,,,,,,,,,,,,,,,,,,,,,,,,,,,,,,,,,,,,,,,,,,,,,,,,,,,,,,,,,,,,,,,,,,,,,3.4033029805868864e-05,None,2,0.7191295530064963,742.9594151370111,None,742.9594151370111,None,742.9594151370111,None,744.9600589690381,None,2,0.7999679690110497,744.9600589690381,None,744.9600589690381,None,746.9591406460386,None,746.9591406460386,None,1,0.6522353679756634,746.9591406460386,None,1,1.0015571669791825,748.9589335950441,None,748.9589335950441,None,748.9589335950441,None,750.9583102990291,None,750.9583102990291,None,1,0.8389178770012222,750.9583102990291,None,752.9591124470462,None,752.9591124470462,None,2,0.7895920420414768,752.9591124470462,None,001,23,2019_Oct_29_1134,viewing,3.1.2,60.09842882980916,
north.png,stims/wedding-34.1a.mp4,stims/wedding-34.1b.mp4,stims/wedding-34.2b.mp4,stims/wedding-34.3b.mp4,stims/wedding-34.4b.mp4,stims/wedding-34.5.mp4,stimsday2details/newpainting14.png,stimsday2details/painting34.png,stimsday2details/couple34.png,stimsday2details/newperson30.png,stimsday2details/new30.png,stimsday2details/gift34.png,stimsday2details/n34.png,stimsday2details/cn34.png,stimsday2details/ct34.png,stimsday2details/t34.png,0,5,5,5,0,0,0,0,,,,,,,,,,,,,,,,,,,,,,,,,None,None,,,,,,,,,,,,,,,,,,,,,,,,,,,,,,,,,,,,,,,,,,,,,,,,,,,,,,,,,,,,,,,,,,,,,,,,,,,,,,,,,,,,,,,,,,,,,001,23,2019_Oct_29_1134,viewing,3.1.2,60.09842882980916,
north.png,stims/wedding-34.1a.mp4,stims/wedding-34.1b.mp4,stims/wedding-34.2b.mp4,stims/wedding-34.3b.mp4,stims/wedding-34.4b.mp4,stims/wedding-34.5.mp4,stimsday2details/newpainting14.png,stimsday2details/painting34.png,stimsday2details/couple34.png,stimsday2details/newperson30.png,stimsday2details/new30.png,stimsday2details/gift34.png,stimsday2details/n34.png,stimsday2details/cn34.png,stimsday2details/ct34.png,stimsday2details/t34.png,0,5,5,5,,,,,0,0,0,0,,,,,,,,,,,,,,,,,,,,,,,755.0916985920048,None,,,,,,,,,,,,,,,,,,,,,,,,,,,,,,,,,,,,,,,,,,,,,,,,,,,,,,,,,,,,,,,,,,,,,,,,,,,,,,,,,,,,,,,,,,,001,23,2019_Oct_29_1134,viewing,3.1.2,60.09842882980916,
north.png,stims/wedding-34.1a.mp4,stims/wedding-34.1b.mp4,stims/wedding-34.2b.mp4,stims/wedding-34.3b.mp4,stims/wedding-34.4b.mp4,stims/wedding-34.5.mp4,stimsday2details/newpainting14.png,stimsday2details/painting34.png,stimsday2details/couple34.png,stimsday2details/newperson30.png,stimsday2details/new30.png,stimsday2details/gift34.png,stimsday2details/n34.png,stimsday2details/cn34.png,stimsday2details/ct34.png,stimsday2details/t34.png,0,5,5,5,,,,,,,,,0,0,0,0,,,,,,,,,,,,,,,,,,,,,3.106948419008404,None,765.3424923330313,790.2262082110392,790.2422859329963,799.2289972970029,799.2423469620408,None,816.2410558460397,839.223821036052,839.2409980850061,None,863.2428595329984,None,,,,,,,,,,,,,,,,,,,,,,,,,,,,,,,,,,,,,,,,,,,,,,,,,,,,,,,,,,,,,,,,,,,,,,,,,,,,,001,23,2019_Oct_29_1134,viewing,3.1.2,60.09842882980916,
north.png,stims/wedding-34.1a.mp4,stims/wedding-34.1b.mp4,stims/wedding-34.2b.mp4,stims/wedding-34.3b.mp4,stims/wedding-34.4b.mp4,stims/wedding-34.5.mp4,stimsday2details/newpainting14.png,stimsday2details/painting34.png,stimsday2details/couple34.png,stimsday2details/newperson30.png,stimsday2details/new30.png,stimsday2details/gift34.png,stimsday2details/n34.png,stimsday2details/cn34.png,stimsday2details/ct34.png,stimsday2details/t34.png,0,5,5,5,,,,,,,,,,,,,0,0,0,0,,,,,,,,,,,,,,,,,,,,,,,,,,,,,,,None,None,None,None,None,None,None,None,None,None,None,None,None,None,None,None,None,None,None,,None,None,None,,None,None,,,,,,,,,,,,,,,,,,,,,,,,,,,,,,,,,,,,,,,,,,,,,,,,,,,001,23,2019_Oct_29_1134,viewing,3.1.2,60.09842882980916,
north.png,stims/wedding-34.1a.mp4,stims/wedding-34.1b.mp4,stims/wedding-34.2b.mp4,stims/wedding-34.3b.mp4,stims/wedding-34.4b.mp4,stims/wedding-34.5.mp4,stimsday2details/newpainting14.png,stimsday2details/painting34.png,stimsday2details/couple34.png,stimsday2details/newperson30.png,stimsday2details/new30.png,stimsday2details/gift34.png,stimsday2details/n34.png,stimsday2details/cn34.png,stimsday2details/ct34.png,stimsday2details/t34.png,0,5,5,5,,,,,,,,,,,,,,,,,,,,,,,,,,,,,,,,,,,,,,,,,,,,,,,,,,,,,,,,,,,,,,,,,,,,,,,,,4.73919790238142e-05,None,1,0.6235908910166472,886.7572232290404,None,886.7572232290404,None,886.7572232290404,None,888.7573053440428,None,2,0.752073111012578,888.7573053440428,None,888.7573053440428,None,890.7575264650513,None,890.7575264650513,None,1,0.8683950660051778,890.7575264650513,None,2,1.2017033539596014,892.7571344140451,None,892.7571344140451,None,892.7571344140451,None,894.760599167028,None,894.760599167028,None,2,0.6980082449736074,894.760599167028,None,896.7568481510389,None,896.7568481510389,None,1,0.785046100965701,896.7568481510389,None,001,23,2019_Oct_29_1134,viewing,3.1.2,60.09842882980916,
north.png,stims/wedding-23.1a.mp4,stims/wedding-23.1b.mp4,stims/wedding-23.2b.mp4,stims/wedding-23.3b.mp4,stims/wedding-23.4b.mp4,stims/wedding-23.5.mp4,stimsday2details/painting23.png,stimsday2details/newpainting15.png,stimsday2details/newperson31.png,stimsday2details/couple23.png,stimsday2details/new31.png,stimsday2details/gift23.png,stimsday2details/n23.png,stimsday2details/cn23.png,stimsday2details/ct23.png,stimsday2details/t23.png,0,6,6,6,0,0,0,0,,,,,,,,,,,,,,,,,,,,,,,,,None,None,,,,,,,,,,,,,,,,,,,,,,,,,,,,,,,,,,,,,,,,,,,,,,,,,,,,,,,,,,,,,,,,,,,,,,,,,,,,,,,,,,,,,,,,,,,,,001,23,2019_Oct_29_1134,viewing,3.1.2,60.09842882980916,
north.png,stims/wedding-23.1a.mp4,stims/wedding-23.1b.mp4,stims/wedding-23.2b.mp4,stims/wedding-23.3b.mp4,stims/wedding-23.4b.mp4,stims/wedding-23.5.mp4,stimsday2details/painting23.png,stimsday2details/newpainting15.png,stimsday2details/newperson31.png,stimsday2details/couple23.png,stimsday2details/new31.png,stimsday2details/gift23.png,stimsday2details/n23.png,stimsday2details/cn23.png,stimsday2details/ct23.png,stimsday2details/t23.png,0,6,6,6,,,,,0,0,0,0,,,,,,,,,,,,,,,,,,,,,,,898.9069668090087,None,,,,,,,,,,,,,,,,,,,,,,,,,,,,,,,,,,,,,,,,,,,,,,,,,,,,,,,,,,,,,,,,,,,,,,,,,,,,,,,,,,,,,,,,,,,001,23,2019_Oct_29_1134,viewing,3.1.2,60.09842882980916,
north.png,stims/wedding-23.1a.mp4,stims/wedding-23.1b.mp4,stims/wedding-23.2b.mp4,stims/wedding-23.3b.mp4,stims/wedding-23.4b.mp4,stims/wedding-23.5.mp4,stimsday2details/painting23.png,stimsday2details/newpainting15.png,stimsday2details/newperson31.png,stimsday2details/couple23.png,stimsday2details/new31.png,stimsday2details/gift23.png,stimsday2details/n23.png,stimsday2details/cn23.png,stimsday2details/ct23.png,stimsday2details/t23.png,0,6,6,6,,,,,,,,,0,0,0,0,,,,,,,,,,,,,,,,,,,,,3.1824555399944074,None,909.2583560740459,934.0773990520393,934.0904446930508,None,943.0897360609961,None,960.0891199970501,983.0757839970174,983.0899294490227,None,1007.0888059520512,None,,,,,,,,,,,,,,,,,,,,,,,,,,,,,,,,,,,,,,,,,,,,,,,,,,,,,,,,,,,,,,,,,,,,,,,,,,,,,001,23,2019_Oct_29_1134,viewing,3.1.2,60.09842882980916,
north.png,stims/wedding-23.1a.mp4,stims/wedding-23.1b.mp4,stims/wedding-23.2b.mp4,stims/wedding-23.3b.mp4,stims/wedding-23.4b.mp4,stims/wedding-23.5.mp4,stimsday2details/painting23.png,stimsday2details/newpainting15.png,stimsday2details/newperson31.png,stimsday2details/couple23.png,stimsday2details/new31.png,stimsday2details/gift23.png,stimsday2details/n23.png,stimsday2details/cn23.png,stimsday2details/ct23.png,stimsday2details/t23.png,0,6,6,6,,,,,,,,,,,,,0,0,0,0,,,,,,,,,,,,,,,,,,,,,,,,,,,,,,,None,None,None,None,None,None,None,None,None,None,None,None,None,None,None,None,None,None,None,,None,None,None,,None,None,,,,,,,,,,,,,,,,,,,,,,,,,,,,,,,,,,,,,,,,,,,,,,,,,,,001,23,2019_Oct_29_1134,viewing,3.1.2,60.09842882980916,
north.png,stims/wedding-23.1a.mp4,stims/wedding-23.1b.mp4,stims/wedding-23.2b.mp4,stims/wedding-23.3b.mp4,stims/wedding-23.4b.mp4,stims/wedding-23.5.mp4,stimsday2details/painting23.png,stimsday2details/newpainting15.png,stimsday2details/newperson31.png,stimsday2details/couple23.png,stimsday2details/new31.png,stimsday2details/gift23.png,stimsday2details/n23.png,stimsday2details/cn23.png,stimsday2details/ct23.png,stimsday2details/t23.png,0,6,6,6,,,,,,,,,,,,,,,,,,,,,,,,,,,,,,,,,,,,,,,,,,,,,,,,,,,,,,,,,,,,,,,,,,,,,,,,,2.5225046556442976e-05,None,1,0.6360318360384554,1031.6603808610234,None,1031.6603808610234,None,1031.6603808610234,None,1033.6566348580527,None,1,0.8900103640044108,1033.6566348580527,None,1033.6566348580527,None,1035.6564887640416,None,1035.6564887640416,None,2,0.9498647520085797,1035.6564887640416,None,2,1.8884017440141179,1037.6547940960154,None,1037.6547940960154,None,1037.6547940960154,None,1039.6558101560222,None,1039.6558101560222,None,2,1.8397934029926546,1039.6558101560222,None,1041.655081637029,None,1041.655081637029,None,1,1.7405074950074777,1041.655081637029,None,001,23,2019_Oct_29_1134,viewing,3.1.2,60.09842882980916,
south.png,stims/wedding-1.1a.mp4,stims/wedding-1.1b.mp4,stims/wedding-1.2a.mp4,stims/wedding-1.3b.mp4,stims/wedding-1.4a.mp4,stims/wedding-1.5.mp4,stimsday2details/newegg17.png,stimsday2details/egg1.png,stimsday2details/newperson32.png,stimsday2details/couple1.png,stimsday2details/new32.png,stimsday2details/gift1.png,stimsday2details/cn1.png,stimsday2details/n1.png,stimsday2details/t1.png,stimsday2details/ct1.png,0,7,7,7,0,0,0,0,,,,,,,,,,,,,,,,,,,,,,,,,1043.655591509014,None,,,,,,,,,,,,,,,,,,,,,,,,,,,,,,,,,,,,,,,,,,,,,,,,,,,,,,,,,,,,,,,,,,,,,,,,,,,,,,,,,,,,,,,,,,,,,001,23,2019_Oct_29_1134,viewing,3.1.2,60.09842882980916,
south.png,stims/wedding-1.1a.mp4,stims/wedding-1.1b.mp4,stims/wedding-1.2a.mp4,stims/wedding-1.3b.mp4,stims/wedding-1.4a.mp4,stims/wedding-1.5.mp4,stimsday2details/newegg17.png,stimsday2details/egg1.png,stimsday2details/newperson32.png,stimsday2details/couple1.png,stimsday2details/new32.png,stimsday2details/gift1.png,stimsday2details/cn1.png,stimsday2details/n1.png,stimsday2details/t1.png,stimsday2details/ct1.png,0,7,7,7,,,,,0,0,0,0,,,,,,,,,,,,,,,,,,,,,,,None,None,,,,,,,,,,,,,,,,,,,,,,,,,,,,,,,,,,,,,,,,,,,,,,,,,,,,,,,,,,,,,,,,,,,,,,,,,,,,,,,,,,,,,,,,,,,001,23,2019_Oct_29_1134,viewing,3.1.2,60.09842882980916,
south.png,stims/wedding-1.1a.mp4,stims/wedding-1.1b.mp4,stims/wedding-1.2a.mp4,stims/wedding-1.3b.mp4,stims/wedding-1.4a.mp4,stims/wedding-1.5.mp4,stimsday2details/newegg17.png,stimsday2details/egg1.png,stimsday2details/newperson32.png,stimsday2details/couple1.png,stimsday2details/new32.png,stimsday2details/gift1.png,stimsday2details/cn1.png,stimsday2details/n1.png,stimsday2details/t1.png,stimsday2details/ct1.png,0,7,7,7,,,,,,,,,0,0,0,0,,,,,,,,,,,,,,,,,,,,,3.151735702995211,None,1054.1710064490326,1079.0209170080489,1079.0209170080489,None,1088.0215990200522,1105.020535192045,1105.020535192045,1128.0200487340335,1128.0200487340335,None,1152.0201511160121,None,,,,,,,,,,,,,,,,,,,,,,,,,,,,,,,,,,,,,,,,,,,,,,,,,,,,,,,,,,,,,,,,,,,,,,,,,,,,,001,23,2019_Oct_29_1134,viewing,3.1.2,60.09842882980916,
south.png,stims/wedding-1.1a.mp4,stims/wedding-1.1b.mp4,stims/wedding-1.2a.mp4,stims/wedding-1.3b.mp4,stims/wedding-1.4a.mp4,stims/wedding-1.5.mp4,stimsday2details/newegg17.png,stimsday2details/egg1.png,stimsday2details/newperson32.png,stimsday2details/couple1.png,stimsday2details/new32.png,stimsday2details/gift1.png,stimsday2details/cn1.png,stimsday2details/n1.png,stimsday2details/t1.png,stimsday2details/ct1.png,0,7,7,7,,,,,,,,,,,,,0,0,0,0,,,,,,,,,,,,,,,,,,,,,,,,,,,,,,,None,None,None,None,None,None,None,None,None,None,None,None,None,None,None,None,None,None,None,,None,None,None,,None,None,,,,,,,,,,,,,,,,,,,,,,,,,,,,,,,,,,,,,,,,,,,,,,,,,,,001,23,2019_Oct_29_1134,viewing,3.1.2,60.09842882980916,
south.png,stims/wedding-1.1a.mp4,stims/wedding-1.1b.mp4,stims/wedding-1.2a.mp4,stims/wedding-1.3b.mp4,stims/wedding-1.4a.mp4,stims/wedding-1.5.mp4,stimsday2details/newegg17.png,stimsday2details/egg1.png,stimsday2details/newperson32.png,stimsday2details/couple1.png,stimsday2details/new32.png,stimsday2details/gift1.png,stimsday2details/cn1.png,stimsday2details/n1.png,stimsday2details/t1.png,stimsday2details/ct1.png,0,7,7,7,,,,,,,,,,,,,,,,,,,,,,,,,,,,,,,,,,,,,,,,,,,,,,,,,,,,,,,,,,,,,,,,,,,,,,,,,4.255998646840453e-05,None,2,1.1829918090370484,1175.8231481830007,None,1175.8231481830007,None,1175.8231481830007,None,1177.819467068999,None,2,1.3087588889757171,1177.819467068999,None,1177.819467068999,None,1179.8195495380205,None,1179.8195495380205,None,2,0.7699827949982136,1179.8195495380205,None,1,1.3908506790176034,1181.8196152120363,None,1181.8196152120363,None,1181.8196152120363,None,1183.8202791090007,None,1183.8202791090007,None,2,0.8687784910434857,1183.8202791090007,None,1185.8198746560374,None,1185.8198746560374,None,2,0.7911062210332602,1185.8198746560374,None,001,23,2019_Oct_29_1134,viewing,3.1.2,60.09842882980916,
south.png,stims/wedding-19.1a.mp4,stims/wedding-19.1b.mp4,stims/wedding-19.2b.mp4,stims/wedding-19.3a.mp4,stims/wedding-19.4b.mp4,stims/wedding-19.5.mp4,stimsday2details/painting19.png,stimsday2details/newpainting16.png,stimsday2details/couple19.png,stimsday2details/newperson33.png,stimsday2details/gift19.png,stimsday2details/new33.png,stimsday2details/cn19.png,stimsday2details/n19.png,stimsday2details/ct19.png,stimsday2details/t19.png,0,8,8,8,0,0,0,0,,,,,,,,,,,,,,,,,,,,,,,,,1187.8198685900425,None,,,,,,,,,,,,,,,,,,,,,,,,,,,,,,,,,,,,,,,,,,,,,,,,,,,,,,,,,,,,,,,,,,,,,,,,,,,,,,,,,,,,,,,,,,,,,001,23,2019_Oct_29_1134,viewing,3.1.2,60.09842882980916,
south.png,stims/wedding-19.1a.mp4,stims/wedding-19.1b.mp4,stims/wedding-19.2b.mp4,stims/wedding-19.3a.mp4,stims/wedding-19.4b.mp4,stims/wedding-19.5.mp4,stimsday2details/painting19.png,stimsday2details/newpainting16.png,stimsday2details/couple19.png,stimsday2details/newperson33.png,stimsday2details/gift19.png,stimsday2details/new33.png,stimsday2details/cn19.png,stimsday2details/n19.png,stimsday2details/ct19.png,stimsday2details/t19.png,0,8,8,8,,,,,0,0,0,0,,,,,,,,,,,,,,,,,,,,,,,None,None,,,,,,,,,,,,,,,,,,,,,,,,,,,,,,,,,,,,,,,,,,,,,,,,,,,,,,,,,,,,,,,,,,,,,,,,,,,,,,,,,,,,,,,,,,,001,23,2019_Oct_29_1134,viewing,3.1.2,60.09842882980916,
south.png,stims/wedding-19.1a.mp4,stims/wedding-19.1b.mp4,stims/wedding-19.2b.mp4,stims/wedding-19.3a.mp4,stims/wedding-19.4b.mp4,stims/wedding-19.5.mp4,stimsday2details/painting19.png,stimsday2details/newpainting16.png,stimsday2details/couple19.png,stimsday2details/newperson33.png,stimsday2details/gift19.png,stimsday2details/new33.png,stimsday2details/cn19.png,stimsday2details/n19.png,stimsday2details/ct19.png,stimsday2details/t19.png,0,8,8,8,,,,,,,,,0,0,0,0,,,,,,,,,,,,,,,,,,,,,3.084517548966687,None,1198.3043929070118,1223.2231252170168,1223.2356728050509,None,1232.2366477940232,1249.2231928920373,1249.2360974470503,1272.2220404540421,1272.2358551710495,None,1296.2380887080217,None,,,,,,,,,,,,,,,,,,,,,,,,,,,,,,,,,,,,,,,,,,,,,,,,,,,,,,,,,,,,,,,,,,,,,,,,,,,,,001,23,2019_Oct_29_1134,viewing,3.1.2,60.09842882980916,
south.png,stims/wedding-19.1a.mp4,stims/wedding-19.1b.mp4,stims/wedding-19.2b.mp4,stims/wedding-19.3a.mp4,stims/wedding-19.4b.mp4,stims/wedding-19.5.mp4,stimsday2details/painting19.png,stimsday2details/newpainting16.png,stimsday2details/couple19.png,stimsday2details/newperson33.png,stimsday2details/gift19.png,stimsday2details/new33.png,stimsday2details/cn19.png,stimsday2details/n19.png,stimsday2details/ct19.png,stimsday2details/t19.png,0,8,8,8,,,,,,,,,,,,,0,0,0,0,,,,,,,,,,,,,,,,,,,,,,,,,,,,,,,None,None,None,None,None,None,None,None,None,None,None,None,None,None,None,None,None,None,None,,None,None,None,,None,None,,,,,,,,,,,,,,,,,,,,,,,,,,,,,,,,,,,,,,,,,,,,,,,,,,,001,23,2019_Oct_29_1134,viewing,3.1.2,60.09842882980916,
south.png,stims/wedding-19.1a.mp4,stims/wedding-19.1b.mp4,stims/wedding-19.2b.mp4,stims/wedding-19.3a.mp4,stims/wedding-19.4b.mp4,stims/wedding-19.5.mp4,stimsday2details/painting19.png,stimsday2details/newpainting16.png,stimsday2details/couple19.png,stimsday2details/newperson33.png,stimsday2details/gift19.png,stimsday2details/new33.png,stimsday2details/cn19.png,stimsday2details/n19.png,stimsday2details/ct19.png,stimsday2details/t19.png,0,8,8,8,,,,,,,,,,,,,,,,,,,,,,,,,,,,,,,,,,,,,,,,,,,,,,,,,,,,,,,,,,,,,,,,,,,,,,,,,4.4150976464152336e-05,None,2,0.9196894220076501,1320.5519284490147,None,1320.5519284490147,None,1320.5519284490147,None,1322.5516485890257,None,1,0.685842520033475,1322.5516485890257,None,1322.5516485890257,None,1324.5518922480405,None,1324.5518922480405,None,1,0.8573668150347658,1324.5518922480405,None,2,1.1026027389452793,1326.5560881310375,None,1326.5560881310375,None,1326.5560881310375,None,1328.5552158330102,None,1328.5552158330102,None,1,0.6822088630287908,1328.5552158330102,None,1330.5563058280386,None,1330.5563058280386,None,2,1.8815760310390033,1330.5563058280386,None,001,23,2019_Oct_29_1134,viewing,3.1.2,60.09842882980916,
north.png,stims/wedding-17.1a.mp4,stims/wedding-17.1b.mp4,stims/wedding-17.2a.mp4,stims/wedding-17.3a.mp4,stims/wedding-17.4a.mp4,stims/wedding-17.5.mp4,stimsday2details/newegg18.png,stimsday2details/egg17.png,stimsday2details/newperson34.png,stimsday2details/couple17.png,stimsday2details/new34.png,stimsday2details/gift17.png,stimsday2details/n17.png,stimsday2details/cn17.png,stimsday2details/t17.png,stimsday2details/ct17.png,0,9,9,9,0,0,0,0,,,,,,,,,,,,,,,,,,,,,,,,,None,None,,,,,,,,,,,,,,,,,,,,,,,,,,,,,,,,,,,,,,,,,,,,,,,,,,,,,,,,,,,,,,,,,,,,,,,,,,,,,,,,,,,,,,,,,,,,,001,23,2019_Oct_29_1134,viewing,3.1.2,60.09842882980916,
north.png,stims/wedding-17.1a.mp4,stims/wedding-17.1b.mp4,stims/wedding-17.2a.mp4,stims/wedding-17.3a.mp4,stims/wedding-17.4a.mp4,stims/wedding-17.5.mp4,stimsday2details/newegg18.png,stimsday2details/egg17.png,stimsday2details/newperson34.png,stimsday2details/couple17.png,stimsday2details/new34.png,stimsday2details/gift17.png,stimsday2details/n17.png,stimsday2details/cn17.png,stimsday2details/t17.png,stimsday2details/ct17.png,0,9,9,9,,,,,0,0,0,0,,,,,,,,,,,,,,,,,,,,,,,1332.918792984041,None,,,,,,,,,,,,,,,,,,,,,,,,,,,,,,,,,,,,,,,,,,,,,,,,,,,,,,,,,,,,,,,,,,,,,,,,,,,,,,,,,,,,,,,,,,,001,23,2019_Oct_29_1134,viewing,3.1.2,60.09842882980916,
north.png,stims/wedding-17.1a.mp4,stims/wedding-17.1b.mp4,stims/wedding-17.2a.mp4,stims/wedding-17.3a.mp4,stims/wedding-17.4a.mp4,stims/wedding-17.5.mp4,stimsday2details/newegg18.png,stimsday2details/egg17.png,stimsday2details/newperson34.png,stimsday2details/couple17.png,stimsday2details/new34.png,stimsday2details/gift17.png,stimsday2details/n17.png,stimsday2details/cn17.png,stimsday2details/t17.png,stimsday2details/ct17.png,0,9,9,9,,,,,,,,,0,0,0,0,,,,,,,,,,,,,,,,,,,,,3.1032086560153402,None,1343.2509773990023,None,1368.1679891490494,None,1377.153017878998,1394.1549172039959,1394.1668335460126,None,1417.1670439440059,None,1441.167388085043,None,,,,,,,,,,,,,,,,,,,,,,,,,,,,,,,,,,,,,,,,,,,,,,,,,,,,,,,,,,,,,,,,,,,,,,,,,,,,,001,23,2019_Oct_29_1134,viewing,3.1.2,60.09842882980916,
north.png,stims/wedding-17.1a.mp4,stims/wedding-17.1b.mp4,stims/wedding-17.2a.mp4,stims/wedding-17.3a.mp4,stims/wedding-17.4a.mp4,stims/wedding-17.5.mp4,stimsday2details/newegg18.png,stimsday2details/egg17.png,stimsday2details/newperson34.png,stimsday2details/couple17.png,stimsday2details/new34.png,stimsday2details/gift17.png,stimsday2details/n17.png,stimsday2details/cn17.png,stimsday2details/t17.png,stimsday2details/ct17.png,0,9,9,9,,,,,,,,,,,,,0,0,0,0,,,,,,,,,,,,,,,,,,,,,,,,,,,,,,,None,None,None,None,None,None,None,None,None,None,None,None,None,None,None,None,None,None,None,,None,None,None,,None,None,,,,,,,,,,,,,,,,,,,,,,,,,,,,,,,,,,,,,,,,,,,,,,,,,,,001,23,2019_Oct_29_1134,viewing,3.1.2,60.09842882980916,
north.png,stims/wedding-17.1a.mp4,stims/wedding-17.1b.mp4,stims/wedding-17.2a.mp4,stims/wedding-17.3a.mp4,stims/wedding-17.4a.mp4,stims/wedding-17.5.mp4,stimsday2details/newegg18.png,stimsday2details/egg17.png,stimsday2details/newperson34.png,stimsday2details/couple17.png,stimsday2details/new34.png,stimsday2details/gift17.png,stimsday2details/n17.png,stimsday2details/cn17.png,stimsday2details/t17.png,stimsday2details/ct17.png,0,9,9,9,,,,,,,,,,,,,,,,,,,,,,,,,,,,,,,,,,,,,,,,,,,,,,,,,,,,,,,,,,,,,,,,,,,,,,,,,3.531097900122404e-05,None,1,1.1178151300409809,1465.082578542002,None,1465.082578542002,None,1465.082578542002,None,1467.0839349010494,None,2,0.8227063019876368,1467.0839349010494,None,1467.0839349010494,None,1469.0866639760206,None,1469.0866639760206,None,2,0.7989171730005182,1469.0866639760206,None,1,1.1355805220082402,1471.083639221033,None,1471.083639221033,None,1471.083639221033,None,1473.0822641330305,None,1473.0822641330305,None,2,0.6535314079956152,1473.0822641330305,None,1475.0822180980467,None,1475.0822180980467,None,1,0.5370076630497351,1475.0822180980467,None,001,23,2019_Oct_29_1134,viewing,3.1.2,60.09842882980916,
north.png,stims/wedding-20.1a.mp4,stims/wedding-20.1b.mp4,stims/wedding-20.2b.mp4,stims/wedding-20.3b.mp4,stims/wedding-20.4b.mp4,stims/wedding-20.5.mp4,stimsday2details/newpainting17.png,stimsday2details/painting20.png,stimsday2details/newperson35.png,stimsday2details/couple20.png,stimsday2details/new35.png,stimsday2details/gift20.png,stimsday2details/cn20.png,stimsday2details/n20.png,stimsday2details/ct20.png,stimsday2details/t20.png,0,10,10,10,0,0,0,0,,,,,,,,,,,,,,,,,,,,,,,,,None,None,,,,,,,,,,,,,,,,,,,,,,,,,,,,,,,,,,,,,,,,,,,,,,,,,,,,,,,,,,,,,,,,,,,,,,,,,,,,,,,,,,,,,,,,,,,,,001,23,2019_Oct_29_1134,viewing,3.1.2,60.09842882980916,
north.png,stims/wedding-20.1a.mp4,stims/wedding-20.1b.mp4,stims/wedding-20.2b.mp4,stims/wedding-20.3b.mp4,stims/wedding-20.4b.mp4,stims/wedding-20.5.mp4,stimsday2details/newpainting17.png,stimsday2details/painting20.png,stimsday2details/newperson35.png,stimsday2details/couple20.png,stimsday2details/new35.png,stimsday2details/gift20.png,stimsday2details/cn20.png,stimsday2details/n20.png,stimsday2details/ct20.png,stimsday2details/t20.png,0,10,10,10,,,,,0,0,0,0,,,,,,,,,,,,,,,,,,,,,,,1477.3325123780523,None,,,,,,,,,,,,,,,,,,,,,,,,,,,,,,,,,,,,,,,,,,,,,,,,,,,,,,,,,,,,,,,,,,,,,,,,,,,,,,,,,,,,,,,,,,,001,23,2019_Oct_29_1134,viewing,3.1.2,60.09842882980916,
north.png,stims/wedding-20.1a.mp4,stims/wedding-20.1b.mp4,stims/wedding-20.2b.mp4,stims/wedding-20.3b.mp4,stims/wedding-20.4b.mp4,stims/wedding-20.5.mp4,stimsday2details/newpainting17.png,stimsday2details/painting20.png,stimsday2details/newperson35.png,stimsday2details/couple20.png,stimsday2details/new35.png,stimsday2details/gift20.png,stimsday2details/cn20.png,stimsday2details/n20.png,stimsday2details/ct20.png,stimsday2details/t20.png,0,10,10,10,,,,,,,,,0,0,0,0,,,,,,,,,,,,,,,,,,,,,2.971534395008348,None,1487.5493543220218,1512.566325612017,1512.5824240920483,None,1521.581712127023,None,1538.5820533090155,1561.5647308720509,1561.5823172650416,None,1585.582018665038,None,,,,,,,,,,,,,,,,,,,,,,,,,,,,,,,,,,,,,,,,,,,,,,,,,,,,,,,,,,,,,,,,,,,,,,,,,,,,,001,23,2019_Oct_29_1134,viewing,3.1.2,60.09842882980916,
north.png,stims/wedding-20.1a.mp4,stims/wedding-20.1b.mp4,stims/wedding-20.2b.mp4,stims/wedding-20.3b.mp4,stims/wedding-20.4b.mp4,stims/wedding-20.5.mp4,stimsday2details/newpainting17.png,stimsday2details/painting20.png,stimsday2details/newperson35.png,stimsday2details/couple20.png,stimsday2details/new35.png,stimsday2details/gift20.png,stimsday2details/cn20.png,stimsday2details/n20.png,stimsday2details/ct20.png,stimsday2details/t20.png,0,10,10,10,,,,,,,,,,,,,0,0,0,0,,,,,,,,,,,,,,,,,,,,,,,,,,,,,,,None,None,None,None,None,None,None,None,None,None,None,None,None,None,None,None,None,None,None,,None,None,None,,None,None,,,,,,,,,,,,,,,,,,,,,,,,,,,,,,,,,,,,,,,,,,,,,,,,,,,001,23,2019_Oct_29_1134,viewing,3.1.2,60.09842882980916,
north.png,stims/wedding-20.1a.mp4,stims/wedding-20.1b.mp4,stims/wedding-20.2b.mp4,stims/wedding-20.3b.mp4,stims/wedding-20.4b.mp4,stims/wedding-20.5.mp4,stimsday2details/newpainting17.png,stimsday2details/painting20.png,stimsday2details/newperson35.png,stimsday2details/couple20.png,stimsday2details/new35.png,stimsday2details/gift20.png,stimsday2details/cn20.png,stimsday2details/n20.png,stimsday2details/ct20.png,stimsday2details/t20.png,0,10,10,10,,,,,,,,,,,,,,,,,,,,,,,,,,,,,,,,,,,,,,,,,,,,,,,,,,,,,,,,,,,,,,,,,,,,,,,,,3.1476025469601154e-05,None,2,1.538130937027745,1608.6482306900434,None,1608.6482306900434,None,1608.6482306900434,None,1610.632050161017,None,2,1.1369920609868132,1610.632050161017,None,1610.632050161017,None,1612.632396941015,None,1612.632396941015,None,2,1.1678701959899627,1612.632396941015,None,2,1.3413021200103685,1614.6307128280168,None,1614.6307128280168,None,1614.6307128280168,None,1616.631588096032,None,1616.631588096032,None,2,0.8575473669916391,1616.631588096032,None,1618.6349845200311,None,1618.6349845200311,None,1,1.3820415730006061,1618.6349845200311,None,001,23,2019_Oct_29_1134,viewing,3.1.2,60.09842882980916,
south.png,stims/wedding-29.1a.mp4,stims/wedding-29.1b.mp4,stims/wedding-29.2b.mp4,stims/wedding-29.3a.mp4,stims/wedding-29.4b.mp4,stims/wedding-29.5.mp4,stimsday2details/painting29.png,stimsday2details/newpainting18.png,stimsday2details/couple29.png,stimsday2details/newperson36.png,stimsday2details/gift29.png,stimsday2details/new36.png,stimsday2details/n29.png,stimsday2details/cn29.png,stimsday2details/ct29.png,stimsday2details/t29.png,0,11,11,11,0,0,0,0,,,,,,,,,,,,,,,,,,,,,,,,,1620.631427048007,None,,,,,,,,,,,,,,,,,,,,,,,,,,,,,,,,,,,,,,,,,,,,,,,,,,,,,,,,,,,,,,,,,,,,,,,,,,,,,,,,,,,,,,,,,,,,,001,23,2019_Oct_29_1134,viewing,3.1.2,60.09842882980916,
south.png,stims/wedding-29.1a.mp4,stims/wedding-29.1b.mp4,stims/wedding-29.2b.mp4,stims/wedding-29.3a.mp4,stims/wedding-29.4b.mp4,stims/wedding-29.5.mp4,stimsday2details/painting29.png,stimsday2details/newpainting18.png,stimsday2details/couple29.png,stimsday2details/newperson36.png,stimsday2details/gift29.png,stimsday2details/new36.png,stimsday2details/n29.png,stimsday2details/cn29.png,stimsday2details/ct29.png,stimsday2details/t29.png,0,11,11,11,,,,,0,0,0,0,,,,,,,,,,,,,,,,,,,,,,,None,None,,,,,,,,,,,,,,,,,,,,,,,,,,,,,,,,,,,,,,,,,,,,,,,,,,,,,,,,,,,,,,,,,,,,,,,,,,,,,,,,,,,,,,,,,,,001,23,2019_Oct_29_1134,viewing,3.1.2,60.09842882980916,
south.png,stims/wedding-29.1a.mp4,stims/wedding-29.1b.mp4,stims/wedding-29.2b.mp4,stims/wedding-29.3a.mp4,stims/wedding-29.4b.mp4,stims/wedding-29.5.mp4,stimsday2details/painting29.png,stimsday2details/newpainting18.png,stimsday2details/couple29.png,stimsday2details/newperson36.png,stimsday2details/gift29.png,stimsday2details/new36.png,stimsday2details/n29.png,stimsday2details/cn29.png,stimsday2details/ct29.png,stimsday2details/t29.png,0,11,11,11,,,,,,,,,0,0,0,0,,,,,,,,,,,,,,,,,,,,,None,None,None,None,None,None,None,None,None,None,None,None,None,None,,,,,,,,,,,,,,,,,,,,,,,,,,,,,,,,,,,,,,,,,,,,,,,,,,,,,,,,,,,,,,,,,,,,,,,,,,,,,001,23,2019_Oct_29_1134,viewing,3.1.2,60.09842882980916,
south.png,stims/wedding-29.1a.mp4,stims/wedding-29.1b.mp4,stims/wedding-29.2b.mp4,stims/wedding-29.3a.mp4,stims/wedding-29.4b.mp4,stims/wedding-29.5.mp4,stimsday2details/painting29.png,stimsday2details/newpainting18.png,stimsday2details/couple29.png,stimsday2details/newperson36.png,stimsday2details/gift29.png,stimsday2details/new36.png,stimsday2details/n29.png,stimsday2details/cn29.png,stimsday2details/ct29.png,stimsday2details/t29.png,0,11,11,11,,,,,,,,,,,,,0,0,0,0,,,,,,,,,,,,,,,,,,,,,,,,,,,,,,,2.736924247990828,None,1634.0636663070181,None,1659.3300147610134,None,1668.329838250007,None,1685.3304440940265,1689.3298059310182,1689.3298059310182,None,1712.329299501027,1716.3298297410365,1716.3298297410365,None,1740.345948319009,None,"['2', '1', '1']","[2.94112552999286, 4.069566090009175, 4.606682291021571]",1684.3307733720285,1689.3298059310182,['1'],[2.989483599027153],1711.3303421949968,1716.3298297410365,,,,,,,,,,,,,,,,,,,,,,,,,,,,,,,,,,,,,,,,,,,,,,,,,,,001,23,2019_Oct_29_1134,viewing,3.1.2,60.09842882980916,
south.png,stims/wedding-29.1a.mp4,stims/wedding-29.1b.mp4,stims/wedding-29.2b.mp4,stims/wedding-29.3a.mp4,stims/wedding-29.4b.mp4,stims/wedding-29.5.mp4,stimsday2details/painting29.png,stimsday2details/newpainting18.png,stimsday2details/couple29.png,stimsday2details/newperson36.png,stimsday2details/gift29.png,stimsday2details/new36.png,stimsday2details/n29.png,stimsday2details/cn29.png,stimsday2details/ct29.png,stimsday2details/t29.png,0,11,11,11,,,,,,,,,,,,,,,,,,,,,,,,,,,,,,,,,,,,,,,,,,,,,,,,,,,,,,,,,,,,,,,,,,,,,,,,,3.54400253854692e-05,None,1,0.48724848800338805,1760.9124595530448,None,1760.9124595530448,None,1760.9124595530448,None,1762.9133175050374,None,1,0.6020908799837343,1762.9133175050374,None,1762.9133175050374,None,1764.9119009810383,None,1764.9119009810383,None,1,0.7538774699787609,1764.9119009810383,None,2,1.3532344359555282,1766.9129943570006,None,1766.9129943570006,None,1766.9129943570006,None,1768.911863076035,None,1768.911863076035,None,1,0.7003590490203351,1768.911863076035,None,1770.911818216031,None,1770.911818216031,None,2,1.025087738991715,1770.911818216031,None,001,23,2019_Oct_29_1134,viewing,3.1.2,60.09842882980916,
