date	time	group	subject	build	blocknum	trialnum	blockcode	trialcode	pretrialpause	posttrialpause	trialduration	trialtimeout	response	correct	latency	stimulusnumber1	stimulusitem1	stimulusonset1	stimulusnumber2	stimulusitem2	stimulusonset2
071119	17:02:23	1	4	5.0.14.0	1	1	block1	pretrain	0	0	0	0	0	0	5000	12	C202.jpeg	12	1	blank	3992
071119	17:02:23	1	4	5.0.14.0	1	2	block1	pretrain	0	0	0	0	0	0	5000	9	C191.jpeg	-8	1	blank	3992
071119	17:02:23	1	4	5.0.14.0	1	3	block1	pretrain	0	0	0	0	0	0	5000	3	C21.jpeg	-7	1	blank	3993
071119	17:02:23	1	4	5.0.14.0	1	4	block1	pretrain	0	0	0	0	0	0	5000	21	C341.jpeg	-8	1	blank	3993
071119	17:02:23	1	4	5.0.14.0	1	5	block1	pretrain	0	0	0	0	0	0	5000	17	C281.jpeg	-8	1	blank	3993
071119	17:02:23	1	4	5.0.14.0	1	6	block1	pretrain	0	0	0	0	0	0	5000	16	C232.jpeg	-8	1	blank	3993
071119	17:02:23	1	4	5.0.14.0	1	7	block1	pretrain	0	0	0	0	0	0	5000	10	C192.jpeg	-8	1	blank	3993
071119	17:02:23	1	4	5.0.14.0	1	8	block1	pretrain	0	0	0	0	0	0	5000	14	C222.jpeg	-8	1	blank	3993
071119	17:02:23	1	4	5.0.14.0	1	9	block1	pretrain	0	0	0	0	0	0	5000	13	C221.jpeg	-8	1	blank	3993
071119	17:02:23	1	4	5.0.14.0	1	10	block1	pretrain	0	0	0	0	0	0	5000	15	C231.jpeg	-8	1	blank	3993
071119	17:02:23	1	4	5.0.14.0	1	11	block1	pretrain	0	0	0	0	0	0	5000	23	C381.jpeg	-8	1	blank	3993
071119	17:02:23	1	4	5.0.14.0	1	12	block1	pretrain	0	0	0	0	0	0	5000	2	C12.jpeg	-8	1	blank	3993
071119	17:02:23	1	4	5.0.14.0	1	13	block1	pretrain	0	0	0	0	0	0	5000	4	C22.jpeg	-8	1	blank	3993
071119	17:02:23	1	4	5.0.14.0	1	14	block1	pretrain	0	0	0	0	0	0	5000	20	C292.jpeg	-8	1	blank	3993
071119	17:02:23	1	4	5.0.14.0	1	15	block1	pretrain	0	0	0	0	0	0	5000	11	C201.jpeg	-8	1	blank	3993
071119	17:02:23	1	4	5.0.14.0	1	16	block1	pretrain	0	0	0	0	0	0	5000	18	C282.jpeg	-8	1	blank	3993
071119	17:02:23	1	4	5.0.14.0	1	17	block1	pretrain	0	0	0	0	0	0	5000	5	C61.jpeg	-8	1	blank	3993
071119	17:02:23	1	4	5.0.14.0	1	18	block1	pretrain	0	0	0	0	0	0	5000	22	C342.jpeg	-8	1	blank	3993
071119	17:02:23	1	4	5.0.14.0	1	19	block1	pretrain	0	0	0	0	0	0	5000	24	C382.jpeg	-8	1	blank	3993
071119	17:02:23	1	4	5.0.14.0	1	20	block1	pretrain	0	0	0	0	0	0	5000	19	C291.jpeg	-8	1	blank	3992
071119	17:02:23	1	4	5.0.14.0	1	21	block1	pretrain	0	0	0	0	0	0	5000	6	C62.jpeg	-8	1	blank	3993
071119	17:02:23	1	4	5.0.14.0	1	22	block1	pretrain	0	0	0	0	0	0	5000	8	C172.jpeg	-8	1	blank	3993
071119	17:02:23	1	4	5.0.14.0	1	23	block1	pretrain	0	0	0	0	0	0	5000	7	C171.jpeg	-8	1	blank	3991
071119	17:02:23	1	4	5.0.14.0	1	24	block1	pretrain	0	0	0	0	0	0	5000	1	C11.jpeg	-8	1	blank	3993
071119	17:02:23	1	4	5.0.14.0	2	1	block2	pretrain	0	0	0	0	0	0	5000	8	C172.jpeg	-7	1	blank	3993
071119	17:02:23	1	4	5.0.14.0	2	2	block2	pretrain	0	0	0	0	0	0	5000	14	C222.jpeg	-8	1	blank	3990
071119	17:02:23	1	4	5.0.14.0	2	3	block2	pretrain	0	0	0	0	0	0	5000	21	C341.jpeg	-8	1	blank	3993
071119	17:02:23	1	4	5.0.14.0	2	4	block2	pretrain	0	0	0	0	0	0	5000	5	C61.jpeg	-8	1	blank	3993
071119	17:02:23	1	4	5.0.14.0	2	5	block2	pretrain	0	0	0	0	0	0	5000	15	C231.jpeg	-8	1	blank	3993
071119	17:02:23	1	4	5.0.14.0	2	6	block2	pretrain	0	0	0	0	0	0	5000	18	C282.jpeg	-8	1	blank	3993
071119	17:02:23	1	4	5.0.14.0	2	7	block2	pretrain	0	0	0	0	0	0	5000	3	C21.jpeg	-8	1	blank	3993
071119	17:02:23	1	4	5.0.14.0	2	8	block2	pretrain	0	0	0	0	0	0	5000	4	C22.jpeg	-8	1	blank	3993
071119	17:02:23	1	4	5.0.14.0	2	9	block2	pretrain	0	0	0	0	0	0	5000	7	C171.jpeg	-8	1	blank	3993
071119	17:02:23	1	4	5.0.14.0	2	10	block2	pretrain	0	0	0	0	0	0	5000	6	C62.jpeg	-8	1	blank	3993
071119	17:02:23	1	4	5.0.14.0	2	11	block2	pretrain	0	0	0	0	0	0	5000	2	C12.jpeg	-8	1	blank	3993
071119	17:02:23	1	4	5.0.14.0	2	12	block2	pretrain	0	0	0	0	0	0	5000	1	C11.jpeg	-8	1	blank	3994
071119	17:02:23	1	4	5.0.14.0	2	13	block2	pretrain	0	0	0	0	0	0	5000	20	C292.jpeg	-8	1	blank	3992
071119	17:02:23	1	4	5.0.14.0	2	14	block2	pretrain	0	0	0	0	0	0	5000	16	C232.jpeg	-8	1	blank	3993
071119	17:02:23	1	4	5.0.14.0	2	15	block2	pretrain	0	0	0	0	0	0	5000	23	C381.jpeg	-8	1	blank	3993
071119	17:02:23	1	4	5.0.14.0	2	16	block2	pretrain	0	0	0	0	0	0	5000	22	C342.jpeg	-8	1	blank	3993
071119	17:02:23	1	4	5.0.14.0	2	17	block2	pretrain	0	0	0	0	0	0	5000	19	C291.jpeg	-8	1	blank	3992
071119	17:02:23	1	4	5.0.14.0	2	18	block2	pretrain	0	0	0	0	0	0	5000	13	C221.jpeg	-8	1	blank	3993
071119	17:02:23	1	4	5.0.14.0	2	19	block2	pretrain	0	0	0	0	0	0	5000	9	C191.jpeg	-8	1	blank	3993
071119	17:02:23	1	4	5.0.14.0	2	20	block2	pretrain	0	0	0	0	0	0	5000	12	C202.jpeg	-8	1	blank	3993
071119	17:02:23	1	4	5.0.14.0	2	21	block2	pretrain	0	0	0	0	0	0	5000	24	C382.jpeg	-8	1	blank	3993
071119	17:02:23	1	4	5.0.14.0	2	22	block2	pretrain	0	0	0	0	0	0	5000	10	C192.jpeg	-8	1	blank	3993
071119	17:02:23	1	4	5.0.14.0	2	23	block2	pretrain	0	0	0	0	0	0	5000	11	C201.jpeg	-8	1	blank	3993
071119	17:02:23	1	4	5.0.14.0	2	24	block2	pretrain	0	0	0	0	0	0	5000	17	C281.jpeg	-8	1	blank	3993
071119	17:02:23	1	4	5.0.14.0	3	1	block3	pretrainWithFeedback	0	0	0	0	Hannah	0	10600	7	C171Q.jpeg	34	7	Wrong! It's Steph	10646
071119	17:02:23	1	4	5.0.14.0	3	2	block3	pretrainWithFeedback	0	0	0	0	Angela	1	4120	23	C381Q.jpeg	-6	1	correct!	4151
071119	17:02:23	1	4	5.0.14.0	3	3	block3	pretrainWithFeedback	0	0	0	0	Bill	1	3207	10	C192Q.jpeg	3	1	correct!	3243
071119	17:02:23	1	4	5.0.14.0	3	4	block3	pretrainWithFeedback	0	0	0	0	Jim	1	4978	4	C22Q.jpeg	3	1	correct!	5012
071119	17:02:23	1	4	5.0.14.0	3	5	block3	pretrainWithFeedback	0	0	0	0	Beth	1	3937	3	C21Q.jpeg	4	1	correct!	3976
071119	17:02:23	1	4	5.0.14.0	3	6	block3	pretrainWithFeedback	0	0	0	0	Solomon	1	4417	20	C292Q.jpeg	3	1	correct!	4442
071119	17:02:23	1	4	5.0.14.0	3	7	block3	pretrainWithFeedback	0	0	0	0	Doreen	1	4134	13	C221Q.jpeg	3	1	correct!	4159
071119	17:02:23	1	4	5.0.14.0	3	8	block3	pretrainWithFeedback	0	0	0	0	Simon	1	4480	14	C222Q.jpeg	0	1	correct!	4515
071119	17:02:23	1	4	5.0.14.0	3	9	block3	pretrainWithFeedback	0	0	0	0		0	33028	1	C11Q.jpeg	0	1	Wrong! It's Jolene	33060
071119	17:02:23	1	4	5.0.14.0	3	10	block3	pretrainWithFeedback	0	0	0	0	Jennifer	1	4431	5	C61Q.jpeg	4	1	correct!	4461
071119	17:02:23	1	4	5.0.14.0	3	11	block3	pretrainWithFeedback	0	0	0	0	Magadelene	0	6392	15	C231Q.jpeg	0	15	Wrong! It's Magdalene	6413
071119	17:02:23	1	4	5.0.14.0	3	12	block3	pretrainWithFeedback	0	0	0	0	Dave	0	15929	6	C62Q.jpeg	0	6	Wrong! It's Bob	15951
071119	17:02:23	1	4	5.0.14.0	3	13	block3	pretrainWithFeedback	0	0	0	0	Dave	0	16852	8	C172Q.jpeg	0	8	Wrong! It's Harold	16875
071119	17:02:23	1	4	5.0.14.0	3	14	block3	pretrainWithFeedback	0	0	0	0	Vera	0	3500	11	C201Q.jpeg	0	11	Wrong! It's Camille	3530
071119	17:02:23	1	4	5.0.14.0	3	15	block3	pretrainWithFeedback	0	0	0	0	Sharon	0	4005	17	C281Q.jpeg	3	17	Wrong! It's Shannon	4045
071119	17:02:23	1	4	5.0.14.0	3	16	block3	pretrainWithFeedback	0	0	0	0	Chris	0	2740	22	C342Q.jpeg	3	22	Wrong! It's Dennis	2779
071119	17:02:23	1	4	5.0.14.0	3	17	block3	pretrainWithFeedback	0	0	0	0	Chris	1	5986	16	C232Q.jpeg	0	1	correct!	6012
071119	17:02:23	1	4	5.0.14.0	3	18	block3	pretrainWithFeedback	0	0	0	0	Felix	1	3467	12	C202Q.jpeg	3	1	correct!	3493
071119	17:02:23	1	4	5.0.14.0	3	19	block3	pretrainWithFeedback	0	0	0	0	Vivian	1	3120	21	C341Q.jpeg	-3	1	correct!	3139
071119	17:02:23	1	4	5.0.14.0	3	20	block3	pretrainWithFeedback	0	0	0	0	Jolene	0	14686	9	C191Q.jpeg	-1	9	Wrong! It's Hannah	14719
071119	17:02:23	1	4	5.0.14.0	3	21	block3	pretrainWithFeedback	0	0	0	0	TIm	0	16410	18	C282Q.jpeg	0	18	Wrong! It's Tobias	16432
071119	17:02:23	1	4	5.0.14.0	3	22	block3	pretrainWithFeedback	0	0	0	0	Vera	1	3164	19	C291Q.jpeg	0	1	correct!	3195
071119	17:02:23	1	4	5.0.14.0	3	23	block3	pretrainWithFeedback	0	0	0	0	Dave	1	2825	24	C382Q.jpeg	3	1	correct!	2856
071119	17:02:23	1	4	5.0.14.0	3	24	block3	pretrainWithFeedback	0	0	0	0	Harold	0	17283	2	C12Q.jpeg	3	2	Wrong! It's Jeffrey	17318
071119	17:02:23	1	4	5.0.14.0	4	1	block4	pretrainWithFeedback	0	0	0	0	Beth	1	2610	3	C21Q.jpeg	3	1	correct!	2643
071119	17:02:23	1	4	5.0.14.0	4	2	block4	pretrainWithFeedback	0	0	0	0	Magdalene	1	8916	15	C231Q.jpeg	4	1	correct!	8946
071119	17:02:23	1	4	5.0.14.0	4	3	block4	pretrainWithFeedback	0	0	0	0	Bill	1	2643	10	C192Q.jpeg	0	1	correct!	2676
071119	17:02:23	1	4	5.0.14.0	4	4	block4	pretrainWithFeedback	0	0	0	0	Jim	1	16343	4	C22Q.jpeg	3	1	correct!	16377
071119	17:02:23	1	4	5.0.14.0	4	5	block4	pretrainWithFeedback	0	0	0	0	Tobias	0	5767	2	C12Q.jpeg	-1	2	Wrong! It's Jeffrey	5794
071119	17:02:23	1	4	5.0.14.0	4	6	block4	pretrainWithFeedback	0	0	0	0	Dave	1	2692	24	C382Q.jpeg	0	1	correct!	2729
071119	17:02:23	1	4	5.0.14.0	4	7	block4	pretrainWithFeedback	0	0	0	0	Harold	1	2532	8	C172Q.jpeg	-1	1	correct!	2558
071119	17:02:23	1	4	5.0.14.0	4	8	block4	pretrainWithFeedback	0	0	0	0	Vivian	1	4726	21	C341Q.jpeg	3	1	correct!	4761
071119	17:02:23	1	4	5.0.14.0	4	9	block4	pretrainWithFeedback	0	0	0	0	Vera	1	7928	19	C291Q.jpeg	0	1	correct!	7949
071119	17:02:23	1	4	5.0.14.0	4	10	block4	pretrainWithFeedback	0	0	0	0	Steph	1	5478	7	C171Q.jpeg	3	1	correct!	5512
071119	17:02:23	1	4	5.0.14.0	4	11	block4	pretrainWithFeedback	0	0	0	0	Felix	1	2249	12	C202Q.jpeg	0	1	correct!	2276
071119	17:02:23	1	4	5.0.14.0	4	12	block4	pretrainWithFeedback	0	0	0	0	Hannah	0	9973	11	C201Q.jpeg	4	11	Wrong! It's Camille	10014
071119	17:02:23	1	4	5.0.14.0	4	13	block4	pretrainWithFeedback	0	0	0	0	Solomon	1	3402	20	C292Q.jpeg	0	1	correct!	3428
071119	17:02:23	1	4	5.0.14.0	4	14	block4	pretrainWithFeedback	0	0	0	0	Bob	1	3138	6	C62Q.jpeg	3	1	correct!	3179
071119	17:02:23	1	4	5.0.14.0	4	15	block4	pretrainWithFeedback	0	0	0	0	Doreen	1	2306	13	C221Q.jpeg	3	1	correct!	2344
071119	17:02:23	1	4	5.0.14.0	4	16	block4	pretrainWithFeedback	0	0	0	0	Dennis	1	9478	22	C342Q.jpeg	0	1	correct!	9499
071119	17:02:23	1	4	5.0.14.0	4	17	block4	pretrainWithFeedback	0	0	0	0	Angela	0	14751	1	C11Q.jpeg	0	1	Wrong! It's Jolene	14784
071119	17:02:23	1	4	5.0.14.0	4	18	block4	pretrainWithFeedback	0	0	0	0	Tobias	1	5750	18	C282Q.jpeg	0	1	correct!	5779
071119	17:02:23	1	4	5.0.14.0	4	19	block4	pretrainWithFeedback	0	0	0	0	Hannah	1	3024	9	C191Q.jpeg	0	1	correct!	3060
071119	17:02:23	1	4	5.0.14.0	4	20	block4	pretrainWithFeedback	0	0	0	0	Jennifer	1	2655	5	C61Q.jpeg	-1	1	correct!	2679
071119	17:02:23	1	4	5.0.14.0	4	21	block4	pretrainWithFeedback	0	0	0	0	Shannon	1	2788	17	C281Q.jpeg	0	1	correct!	2810
071119	17:02:23	1	4	5.0.14.0	4	22	block4	pretrainWithFeedback	0	0	0	0	Angela	1	4221	23	C381Q.jpeg	3	1	correct!	4260
071119	17:02:23	1	4	5.0.14.0	4	23	block4	pretrainWithFeedback	0	0	0	0	Simon	1	2864	14	C222Q.jpeg	4	1	correct!	2893
071119	17:02:23	1	4	5.0.14.0	4	24	block4	pretrainWithFeedback	0	0	0	0	Chris	1	2565	16	C232Q.jpeg	4	1	correct!	2594
071619	09:03:32	1	5	5.0.14.0	1	1	block1	pretrain	0	0	0	0	0	0	5000	22	C342.jpeg	50	1	blank	3992
071619	09:03:32	1	5	5.0.14.0	1	2	block1	pretrain	0	0	0	0	0	0	5000	16	C232.jpeg	-8	1	blank	3993
071619	09:03:32	1	5	5.0.14.0	1	3	block1	pretrain	0	0	0	0	0	0	5000	18	C282.jpeg	-8	1	blank	3993
071619	09:03:32	1	5	5.0.14.0	1	4	block1	pretrain	0	0	0	0	0	0	5000	24	C382.jpeg	-8	1	blank	3993
071619	09:03:32	1	5	5.0.14.0	1	5	block1	pretrain	0	0	0	0	0	0	5000	20	C292.jpeg	-8	1	blank	3993
071619	09:03:32	1	5	5.0.14.0	1	6	block1	pretrain	0	0	0	0	0	0	5000	23	C381.jpeg	-8	1	blank	3992
071619	09:03:32	1	5	5.0.14.0	1	7	block1	pretrain	0	0	0	0	0	0	5000	5	C61.jpeg	-8	1	blank	3993
071619	09:03:32	1	5	5.0.14.0	1	8	block1	pretrain	0	0	0	0	0	0	5000	8	C172.jpeg	-8	1	blank	3990
071619	09:03:32	1	5	5.0.14.0	1	9	block1	pretrain	0	0	0	0	0	0	5000	3	C21.jpeg	-8	1	blank	3993
071619	09:03:32	1	5	5.0.14.0	1	10	block1	pretrain	0	0	0	0	0	0	5000	1	C11.jpeg	-8	1	blank	3993
071619	09:03:32	1	5	5.0.14.0	1	11	block1	pretrain	0	0	0	0	0	0	5000	6	C62.jpeg	-8	1	blank	3993
071619	09:03:32	1	5	5.0.14.0	1	12	block1	pretrain	0	0	0	0	0	0	5000	19	C291.jpeg	-8	1	blank	3993
071619	09:03:32	1	5	5.0.14.0	1	13	block1	pretrain	0	0	0	0	0	0	5000	12	C202.jpeg	-8	1	blank	3993
071619	09:03:32	1	5	5.0.14.0	1	14	block1	pretrain	0	0	0	0	0	0	5000	14	C222.jpeg	-8	1	blank	3992
071619	09:03:32	1	5	5.0.14.0	1	15	block1	pretrain	0	0	0	0	0	0	5000	17	C281.jpeg	-8	1	blank	3993
071619	09:03:32	1	5	5.0.14.0	1	16	block1	pretrain	0	0	0	0	0	0	5000	11	C201.jpeg	-8	1	blank	3993
071619	09:03:32	1	5	5.0.14.0	1	17	block1	pretrain	0	0	0	0	0	0	5000	15	C231.jpeg	-8	1	blank	3993
071619	09:03:32	1	5	5.0.14.0	1	18	block1	pretrain	0	0	0	0	0	0	5000	2	C12.jpeg	-8	1	blank	3993
071619	09:03:32	1	5	5.0.14.0	1	19	block1	pretrain	0	0	0	0	0	0	5000	4	C22.jpeg	-8	1	blank	3993
071619	09:03:32	1	5	5.0.14.0	1	20	block1	pretrain	0	0	0	0	0	0	5000	7	C171.jpeg	-8	1	blank	3993
071619	09:03:32	1	5	5.0.14.0	1	21	block1	pretrain	0	0	0	0	0	0	5000	10	C192.jpeg	-8	1	blank	3993
071619	09:03:32	1	5	5.0.14.0	1	22	block1	pretrain	0	0	0	0	0	0	5000	21	C341.jpeg	-8	1	blank	3991
071619	09:03:32	1	5	5.0.14.0	1	23	block1	pretrain	0	0	0	0	0	0	5000	13	C221.jpeg	-8	1	blank	3993
071619	09:03:32	1	5	5.0.14.0	1	24	block1	pretrain	0	0	0	0	0	0	5000	9	C191.jpeg	-8	1	blank	3993
071619	09:03:32	1	5	5.0.14.0	2	1	block2	pretrain	0	0	0	0	0	0	5000	3	C21.jpeg	-8	1	blank	3991
071619	09:03:32	1	5	5.0.14.0	2	2	block2	pretrain	0	0	0	0	0	0	5000	19	C291.jpeg	-8	1	blank	3993
071619	09:03:32	1	5	5.0.14.0	2	3	block2	pretrain	0	0	0	0	0	0	5000	20	C292.jpeg	-8	1	blank	3993
071619	09:03:32	1	5	5.0.14.0	2	4	block2	pretrain	0	0	0	0	0	0	5000	16	C232.jpeg	-8	1	blank	3993
071619	09:03:32	1	5	5.0.14.0	2	5	block2	pretrain	0	0	0	0	0	0	5000	15	C231.jpeg	-8	1	blank	3993
071619	09:03:32	1	5	5.0.14.0	2	6	block2	pretrain	0	0	0	0	0	0	5000	23	C381.jpeg	-8	1	blank	3993
071619	09:03:32	1	5	5.0.14.0	2	7	block2	pretrain	0	0	0	0	0	0	5000	6	C62.jpeg	-8	1	blank	3993
071619	09:03:32	1	5	5.0.14.0	2	8	block2	pretrain	0	0	0	0	0	0	5000	8	C172.jpeg	-8	1	blank	3993
071619	09:03:32	1	5	5.0.14.0	2	9	block2	pretrain	0	0	0	0	0	0	5000	7	C171.jpeg	-8	1	blank	3993
071619	09:03:32	1	5	5.0.14.0	2	10	block2	pretrain	0	0	0	0	0	0	5000	9	C191.jpeg	-8	1	blank	3993
071619	09:03:32	1	5	5.0.14.0	2	11	block2	pretrain	0	0	0	0	0	0	5000	11	C201.jpeg	-8	1	blank	3993
071619	09:03:32	1	5	5.0.14.0	2	12	block2	pretrain	0	0	0	0	0	0	5000	22	C342.jpeg	-8	1	blank	3993
071619	09:03:32	1	5	5.0.14.0	2	13	block2	pretrain	0	0	0	0	0	0	5000	17	C281.jpeg	-8	1	blank	3993
071619	09:03:32	1	5	5.0.14.0	2	14	block2	pretrain	0	0	0	0	0	0	5000	18	C282.jpeg	-8	1	blank	3993
071619	09:03:32	1	5	5.0.14.0	2	15	block2	pretrain	0	0	0	0	0	0	5000	12	C202.jpeg	-8	1	blank	3991
071619	09:03:32	1	5	5.0.14.0	2	16	block2	pretrain	0	0	0	0	0	0	5000	5	C61.jpeg	-8	1	blank	3992
071619	09:03:32	1	5	5.0.14.0	2	17	block2	pretrain	0	0	0	0	0	0	5000	13	C221.jpeg	-8	1	blank	3991
071619	09:03:32	1	5	5.0.14.0	2	18	block2	pretrain	0	0	0	0	0	0	5000	1	C11.jpeg	-8	1	blank	3992
071619	09:03:32	1	5	5.0.14.0	2	19	block2	pretrain	0	0	0	0	0	0	5000	10	C192.jpeg	-8	1	blank	3993
071619	09:03:32	1	5	5.0.14.0	2	20	block2	pretrain	0	0	0	0	0	0	5000	4	C22.jpeg	-7	1	blank	3992
071619	09:03:32	1	5	5.0.14.0	2	21	block2	pretrain	0	0	0	0	0	0	5000	2	C12.jpeg	-8	1	blank	3993
071619	09:03:32	1	5	5.0.14.0	2	22	block2	pretrain	0	0	0	0	0	0	5000	24	C382.jpeg	-8	1	blank	3993
071619	09:03:32	1	5	5.0.14.0	2	23	block2	pretrain	0	0	0	0	0	0	5000	21	C341.jpeg	-8	1	blank	3993
071619	09:03:32	1	5	5.0.14.0	2	24	block2	pretrain	0	0	0	0	0	0	5000	14	C222.jpeg	-8	1	blank	3993
071619	09:03:32	1	5	5.0.14.0	3	1	block3	pretrainWithFeedback	0	0	0	0	Shannon	0	9694	7	C171Q.jpeg	33	7	Wrong! It's Steph	9723
071619	09:03:32	1	5	5.0.14.0	3	2	block3	pretrainWithFeedback	0	0	0	0	Magdalene	1	5542	15	C231Q.jpeg	-2	1	correct!	5563
071619	09:03:32	1	5	5.0.14.0	3	3	block3	pretrainWithFeedback	0	0	0	0	Shannon	1	4098	17	C281Q.jpeg	-1	1	correct!	4129
071619	09:03:32	1	5	5.0.14.0	3	4	block3	pretrainWithFeedback	0	0	0	0	Felix	1	5499	12	C202Q.jpeg	3	1	correct!	5530
071619	09:03:32	1	5	5.0.14.0	3	5	block3	pretrainWithFeedback	0	0	0	0	Doreen	0	6860	3	C21Q.jpeg	3	3	Wrong! It's Beth	6896
071619	09:03:32	1	5	5.0.14.0	3	6	block3	pretrainWithFeedback	0	0	0	0	Angela	1	3979	23	C381Q.jpeg	-3	1	correct!	3993
071619	09:03:32	1	5	5.0.14.0	3	7	block3	pretrainWithFeedback	0	0	0	0	Jim	1	5983	4	C22Q.jpeg	2	1	correct!	6013
071619	09:03:32	1	5	5.0.14.0	3	8	block3	pretrainWithFeedback	0	0	0	0	Dave	0	6419	22	C342Q.jpeg	3	22	Wrong! It's Dennis	6446
071619	09:03:32	1	5	5.0.14.0	3	9	block3	pretrainWithFeedback	0	0	0	0	Bill	0	8043	8	C172Q.jpeg	-7	8	Wrong! It's Harold	8064
071619	09:03:32	1	5	5.0.14.0	3	10	block3	pretrainWithFeedback	0	0	0	0	Jennifer	1	5128	5	C61Q.jpeg	-6	1	correct!	5140
071619	09:03:32	1	5	5.0.14.0	3	11	block3	pretrainWithFeedback	0	0	0	0	Bob	1	3317	6	C62Q.jpeg	0	1	correct!	3343
071619	09:03:32	1	5	5.0.14.0	3	12	block3	pretrainWithFeedback	0	0	0	0	Simon	1	19901	14	C222Q.jpeg	3	1	correct!	19922
071619	09:03:32	1	5	5.0.14.0	3	13	block3	pretrainWithFeedback	0	0	0	0	Dennis	0	34883	19	C291Q.jpeg	3	19	Wrong! It's Vera	34910
071619	09:03:32	1	5	5.0.14.0	3	14	block3	pretrainWithFeedback	0	0	0	0	Jeffrey	0	6549	16	C232Q.jpeg	5	16	Wrong! It's Chris	6582
071619	09:03:32	1	5	5.0.14.0	3	15	block3	pretrainWithFeedback	0	0	0	0	..	0	24547	24	C382Q.jpeg	0	24	Wrong! It's Dave	24570
071619	09:03:32	1	5	5.0.14.0	3	16	block3	pretrainWithFeedback	0	0	0	0	Jolene	1	3708	1	C11Q.jpeg	3	1	correct!	3745
071619	09:03:32	1	5	5.0.14.0	3	17	block3	pretrainWithFeedback	0	0	0	0	Beth	0	6977	11	C201Q.jpeg	0	11	Wrong! It's Camille	7004
071619	09:03:32	1	5	5.0.14.0	3	18	block3	pretrainWithFeedback	0	0	0	0	Margeret	0	10134	9	C191Q.jpeg	-5	9	Wrong! It's Hannah	10148
071619	09:03:32	1	5	5.0.14.0	3	19	block3	pretrainWithFeedback	0	0	0	0	..	0	21683	21	C341Q.jpeg	0	21	Wrong! It's Vivian	21717
071619	09:03:32	1	5	5.0.14.0	3	20	block3	pretrainWithFeedback	0	0	0	0	Jeffrey	1	5109	2	C12Q.jpeg	-1	1	correct!	5139
071619	09:03:32	1	5	5.0.14.0	3	21	block3	pretrainWithFeedback	0	0	0	0	Solomon	1	5318	20	C292Q.jpeg	0	1	correct!	5347
071619	09:03:32	1	5	5.0.14.0	3	22	block3	pretrainWithFeedback	0	0	0	0	Dave	0	4867	10	C192Q.jpeg	3	10	Wrong! It's Bill	4895
071619	09:03:32	1	5	5.0.14.0	3	23	block3	pretrainWithFeedback	0	0	0	0	Tobias	1	5160	18	C282Q.jpeg	4	1	correct!	5194
071619	09:03:32	1	5	5.0.14.0	3	24	block3	pretrainWithFeedback	0	0	0	0	Dolly	0	9491	13	C221Q.jpeg	0	13	Wrong! It's Doreen	9514
071619	09:03:32	1	5	5.0.14.0	4	1	block4	pretrainWithFeedback	0	0	0	0	Hannah	1	6266	9	C191Q.jpeg	0	1	correct!	6296
071619	09:03:32	1	5	5.0.14.0	4	2	block4	pretrainWithFeedback	0	0	0	0	Jeffrey	1	4224	2	C12Q.jpeg	0	1	correct!	4244
071619	09:03:32	1	5	5.0.14.0	4	3	block4	pretrainWithFeedback	0	0	0	0	Doreen	0	6803	11	C201Q.jpeg	3	11	Wrong! It's Camille	6827
071619	09:03:32	1	5	5.0.14.0	4	4	block4	pretrainWithFeedback	0	0	0	0	Doreen	1	6123	13	C221Q.jpeg	-3	1	correct!	6144
071619	09:03:32	1	5	5.0.14.0	4	5	block4	pretrainWithFeedback	0	0	0	0	Tobias	1	3423	18	C282Q.jpeg	0	1	correct!	3444
071619	09:03:32	1	5	5.0.14.0	4	6	block4	pretrainWithFeedback	0	0	0	0	Jolene	1	3945	1	C11Q.jpeg	0	1	correct!	3977
071619	09:03:32	1	5	5.0.14.0	4	7	block4	pretrainWithFeedback	0	0	0	0	Bill	0	4138	4	C22Q.jpeg	3	4	Wrong! It's Jim	4162
071619	09:03:32	1	5	5.0.14.0	4	8	block4	pretrainWithFeedback	0	0	0	0	Harold	0	5753	24	C382Q.jpeg	-5	24	Wrong! It's Dave	5778
071619	09:03:32	1	5	5.0.14.0	4	9	block4	pretrainWithFeedback	0	0	0	0	Felix	1	3904	12	C202Q.jpeg	-4	1	correct!	3929
071619	09:03:32	1	5	5.0.14.0	4	10	block4	pretrainWithFeedback	0	0	0	0	Harold	0	8405	22	C342Q.jpeg	3	22	Wrong! It's Dennis	8428
071619	09:03:32	1	5	5.0.14.0	4	11	block4	pretrainWithFeedback	0	0	0	0	Angela	1	4076	23	C381Q.jpeg	-7	1	correct!	4094
071619	09:03:32	1	5	5.0.14.0	4	12	block4	pretrainWithFeedback	0	0	0	0	Harold	0	8655	16	C232Q.jpeg	3	16	Wrong! It's Chris	8682
071619	09:03:32	1	5	5.0.14.0	4	13	block4	pretrainWithFeedback	0	0	0	0	Jennifer	1	5583	5	C61Q.jpeg	-3	1	correct!	5597
071619	09:03:32	1	5	5.0.14.0	4	14	block4	pretrainWithFeedback	0	0	0	0	Harold	0	5524	10	C192Q.jpeg	3	10	Wrong! It's Bill	5559
071619	09:03:32	1	5	5.0.14.0	4	15	block4	pretrainWithFeedback	0	0	0	0	Hannah	0	19852	21	C341Q.jpeg	-6	21	Wrong! It's Vivian	19875
071619	09:03:32	1	5	5.0.14.0	4	16	block4	pretrainWithFeedback	0	0	0	0	Hannah	0	10124	7	C171Q.jpeg	-6	7	Wrong! It's Steph	10148
071619	09:03:32	1	5	5.0.14.0	4	17	block4	pretrainWithFeedback	0	0	0	0	Dolly	0	23659	19	C291Q.jpeg	3	19	Wrong! It's Vera	23688
071619	09:03:32	1	5	5.0.14.0	4	18	block4	pretrainWithFeedback	0	0	0	0	Bill	0	18695	8	C172Q.jpeg	0	8	Wrong! It's Harold	18723
071619	09:03:32	1	5	5.0.14.0	4	19	block4	pretrainWithFeedback	0	0	0	0	Solomon	1	5444	20	C292Q.jpeg	0	1	correct!	5477
071619	09:03:32	1	5	5.0.14.0	4	20	block4	pretrainWithFeedback	0	0	0	0	Shannon	1	4665	17	C281Q.jpeg	3	1	correct!	4697
071619	09:03:32	1	5	5.0.14.0	4	21	block4	pretrainWithFeedback	0	0	0	0	Simon	1	2733	14	C222Q.jpeg	4	1	correct!	2759
071619	09:03:32	1	5	5.0.14.0	4	22	block4	pretrainWithFeedback	0	0	0	0	Hannah	0	23906	3	C21Q.jpeg	3	3	Wrong! It's Beth	23940
071619	09:03:32	1	5	5.0.14.0	4	23	block4	pretrainWithFeedback	0	0	0	0	Hannah	0	13613	15	C231Q.jpeg	-6	15	Wrong! It's Magdalene	13624
071619	09:03:32	1	5	5.0.14.0	4	24	block4	pretrainWithFeedback	0	0	0	0	Bob	1	2792	6	C62Q.jpeg	4	1	correct!	2827
071819	16:32:35	1	6	5.0.14.0	1	1	block1	pretrain	0	0	0	0	0	0	5000	2	C12.jpeg	-5	1	blank	3992
071819	16:32:35	1	6	5.0.14.0	1	2	block1	pretrain	0	0	0	0	0	0	5000	12	C202.jpeg	-7	1	blank	3991
071819	16:32:35	1	6	5.0.14.0	1	3	block1	pretrain	0	0	0	0	0	0	5000	4	C22.jpeg	-8	1	blank	3991
071819	16:32:35	1	6	5.0.14.0	1	4	block1	pretrain	0	0	0	0	0	0	5000	5	C61.jpeg	-8	1	blank	3993
071819	16:32:35	1	6	5.0.14.0	1	5	block1	pretrain	0	0	0	0	0	0	5000	20	C292.jpeg	-8	1	blank	3991
071819	16:32:35	1	6	5.0.14.0	1	6	block1	pretrain	0	0	0	0	0	0	5000	1	C11.jpeg	-7	1	blank	3991
071819	16:32:35	1	6	5.0.14.0	1	7	block1	pretrain	0	0	0	0	0	0	5000	15	C231.jpeg	-8	1	blank	3991
071819	16:32:35	1	6	5.0.14.0	1	8	block1	pretrain	0	0	0	0	0	0	5000	14	C222.jpeg	-8	1	blank	3991
071819	16:32:35	1	6	5.0.14.0	1	9	block1	pretrain	0	0	0	0	0	0	5000	8	C172.jpeg	-8	1	blank	3994
071819	16:32:35	1	6	5.0.14.0	1	10	block1	pretrain	0	0	0	0	0	0	5000	13	C221.jpeg	-8	1	blank	3993
071819	16:32:35	1	6	5.0.14.0	1	11	block1	pretrain	0	0	0	0	0	0	5000	11	C201.jpeg	-8	1	blank	3993
071819	16:32:35	1	6	5.0.14.0	1	12	block1	pretrain	0	0	0	0	0	0	5000	21	C341.jpeg	-8	1	blank	3991
071819	16:32:35	1	6	5.0.14.0	1	13	block1	pretrain	0	0	0	0	0	0	5000	24	C382.jpeg	-8	1	blank	3992
071819	16:32:35	1	6	5.0.14.0	1	14	block1	pretrain	0	0	0	0	0	0	5000	6	C62.jpeg	-8	1	blank	3993
071819	16:32:35	1	6	5.0.14.0	1	15	block1	pretrain	0	0	0	0	0	0	5000	10	C192.jpeg	-8	1	blank	3993
071819	16:32:35	1	6	5.0.14.0	1	16	block1	pretrain	0	0	0	0	0	0	5000	3	C21.jpeg	-8	1	blank	3993
071819	16:32:35	1	6	5.0.14.0	1	17	block1	pretrain	0	0	0	0	0	0	5000	16	C232.jpeg	-8	1	blank	3993
071819	16:32:35	1	6	5.0.14.0	1	18	block1	pretrain	0	0	0	0	0	0	5000	18	C282.jpeg	-8	1	blank	3993
071819	16:32:35	1	6	5.0.14.0	1	19	block1	pretrain	0	0	0	0	0	0	5000	23	C381.jpeg	-8	1	blank	3992
071819	16:32:35	1	6	5.0.14.0	1	20	block1	pretrain	0	0	0	0	0	0	5000	7	C171.jpeg	-8	1	blank	3992
071819	16:32:35	1	6	5.0.14.0	1	21	block1	pretrain	0	0	0	0	0	0	5000	9	C191.jpeg	-8	1	blank	3992
071819	16:32:35	1	6	5.0.14.0	1	22	block1	pretrain	0	0	0	0	0	0	5000	22	C342.jpeg	-8	1	blank	3992
071819	16:32:35	1	6	5.0.14.0	1	23	block1	pretrain	0	0	0	0	0	0	5000	19	C291.jpeg	-8	1	blank	3993
071819	16:32:35	1	6	5.0.14.0	1	24	block1	pretrain	0	0	0	0	0	0	5000	17	C281.jpeg	-8	1	blank	3992
071819	16:32:35	1	6	5.0.14.0	2	1	block2	pretrain	0	0	0	0	0	0	5000	19	C291.jpeg	-8	1	blank	3993
071819	16:32:35	1	6	5.0.14.0	2	2	block2	pretrain	0	0	0	0	0	0	5000	1	C11.jpeg	-8	1	blank	3993
071819	16:32:35	1	6	5.0.14.0	2	3	block2	pretrain	0	0	0	0	0	0	5000	3	C21.jpeg	-8	1	blank	3993
071819	16:32:35	1	6	5.0.14.0	2	4	block2	pretrain	0	0	0	0	0	0	5000	12	C202.jpeg	-8	1	blank	3991
071819	16:32:35	1	6	5.0.14.0	2	5	block2	pretrain	0	0	0	0	0	0	5000	13	C221.jpeg	-8	1	blank	3992
071819	16:32:35	1	6	5.0.14.0	2	6	block2	pretrain	0	0	0	0	0	0	5000	18	C282.jpeg	-8	1	blank	3994
071819	16:32:35	1	6	5.0.14.0	2	7	block2	pretrain	0	0	0	0	0	0	5000	8	C172.jpeg	-8	1	blank	3993
071819	16:32:35	1	6	5.0.14.0	2	8	block2	pretrain	0	0	0	0	0	0	5000	22	C342.jpeg	-8	1	blank	3993
071819	16:32:35	1	6	5.0.14.0	2	9	block2	pretrain	0	0	0	0	0	0	5000	14	C222.jpeg	-8	1	blank	3993
071819	16:32:35	1	6	5.0.14.0	2	10	block2	pretrain	0	0	0	0	0	0	5000	15	C231.jpeg	-8	1	blank	3991
071819	16:32:35	1	6	5.0.14.0	2	11	block2	pretrain	0	0	0	0	0	0	5000	4	C22.jpeg	-8	1	blank	3993
071819	16:32:35	1	6	5.0.14.0	2	12	block2	pretrain	0	0	0	0	0	0	5000	6	C62.jpeg	-8	1	blank	3993
071819	16:32:35	1	6	5.0.14.0	2	13	block2	pretrain	0	0	0	0	0	0	5000	5	C61.jpeg	-8	1	blank	3993
071819	16:32:35	1	6	5.0.14.0	2	14	block2	pretrain	0	0	0	0	0	0	5000	24	C382.jpeg	-7	1	blank	3993
071819	16:32:35	1	6	5.0.14.0	2	15	block2	pretrain	0	0	0	0	0	0	5000	23	C381.jpeg	-8	1	blank	3993
071819	16:32:35	1	6	5.0.14.0	2	16	block2	pretrain	0	0	0	0	0	0	5000	17	C281.jpeg	-8	1	blank	3993
071819	16:32:35	1	6	5.0.14.0	2	17	block2	pretrain	0	0	0	0	0	0	5000	21	C341.jpeg	-8	1	blank	3991
071819	16:32:35	1	6	5.0.14.0	2	18	block2	pretrain	0	0	0	0	0	0	5000	9	C191.jpeg	-8	1	blank	3992
071819	16:32:35	1	6	5.0.14.0	2	19	block2	pretrain	0	0	0	0	0	0	5000	7	C171.jpeg	-8	1	blank	3992
071819	16:32:35	1	6	5.0.14.0	2	20	block2	pretrain	0	0	0	0	0	0	5000	11	C201.jpeg	-8	1	blank	3993
071819	16:32:35	1	6	5.0.14.0	2	21	block2	pretrain	0	0	0	0	0	0	5000	2	C12.jpeg	-8	1	blank	3993
071819	16:32:35	1	6	5.0.14.0	2	22	block2	pretrain	0	0	0	0	0	0	5000	16	C232.jpeg	-8	1	blank	3994
071819	16:32:35	1	6	5.0.14.0	2	23	block2	pretrain	0	0	0	0	0	0	5000	20	C292.jpeg	-8	1	blank	3993
071819	16:32:35	1	6	5.0.14.0	2	24	block2	pretrain	0	0	0	0	0	0	5000	10	C192.jpeg	-8	1	blank	3993
071819	16:32:35	1	6	5.0.14.0	3	1	block3	pretrainWithFeedback	0	0	0	0	Vera	1	4534	19	C291Q.jpeg	14	1	correct!	4579
071819	16:32:35	1	6	5.0.14.0	3	2	block3	pretrainWithFeedback	0	0	0	0	Magdelene	0	5706	13	C221Q.jpeg	0	13	Wrong! It's Doreen	5730
071819	16:32:35	1	6	5.0.14.0	3	3	block3	pretrainWithFeedback	0	0	0	0	Dennis	1	3377	22	C342Q.jpeg	4	1	correct!	3410
071819	16:32:35	1	6	5.0.14.0	3	4	block3	pretrainWithFeedback	0	0	0	0	Simon	1	2531	14	C222Q.jpeg	3	1	correct!	2562
071819	16:32:35	1	6	5.0.14.0	3	5	block3	pretrainWithFeedback	0	0	0	0	Angela	1	2703	23	C381Q.jpeg	0	1	correct!	2727
071819	16:32:35	1	6	5.0.14.0	3	6	block3	pretrainWithFeedback	0	0	0	0	Ben	0	14859	16	C232Q.jpeg	0	16	Wrong! It's Chris	14884
071819	16:32:35	1	6	5.0.14.0	3	7	block3	pretrainWithFeedback	0	0	0	0	Dave	1	2598	24	C382Q.jpeg	3	1	correct!	2627
071819	16:32:35	1	6	5.0.14.0	3	8	block3	pretrainWithFeedback	0	0	0	0	Magdelene	0	4718	15	C231Q.jpeg	4	15	Wrong! It's Magdalene	4747
071819	16:32:35	1	6	5.0.14.0	3	9	block3	pretrainWithFeedback	0	0	0	0	Shannon	1	2788	17	C281Q.jpeg	0	1	correct!	2813
071819	16:32:35	1	6	5.0.14.0	3	10	block3	pretrainWithFeedback	0	0	0	0	Steph	1	2654	7	C171Q.jpeg	0	1	correct!	2678
071819	16:32:35	1	6	5.0.14.0	3	11	block3	pretrainWithFeedback	0	0	0	0	Felix	1	2975	12	C202Q.jpeg	0	1	correct!	3012
071819	16:32:35	1	6	5.0.14.0	3	12	block3	pretrainWithFeedback	0	0	0	0	Camille	1	4941	11	C201Q.jpeg	4	1	correct!	4979
071819	16:32:35	1	6	5.0.14.0	3	13	block3	pretrainWithFeedback	0	0	0	0	Bob	1	2215	6	C62Q.jpeg	0	1	correct!	2243
071819	16:32:35	1	6	5.0.14.0	3	14	block3	pretrainWithFeedback	0	0	0	0	Helen	0	2129	9	C191Q.jpeg	3	9	Wrong! It's Hannah	2163
071819	16:32:35	1	6	5.0.14.0	3	15	block3	pretrainWithFeedback	0	0	0	0	Jim	1	3501	4	C22Q.jpeg	0	1	correct!	3529
071819	16:32:35	1	6	5.0.14.0	3	16	block3	pretrainWithFeedback	0	0	0	0	Camille	0	4317	5	C61Q.jpeg	3	5	Wrong! It's Jennifer	4345
071819	16:32:35	1	6	5.0.14.0	3	17	block3	pretrainWithFeedback	0	0	0	0	Harold	1	2143	8	C172Q.jpeg	2	1	correct!	2180
071819	16:32:35	1	6	5.0.14.0	3	18	block3	pretrainWithFeedback	0	0	0	0	Solomon	1	8379	20	C292Q.jpeg	-2	1	correct!	8398
071819	16:32:35	1	6	5.0.14.0	3	19	block3	pretrainWithFeedback	0	0	0	0	Jolene	1	2984	1	C11Q.jpeg	0	1	correct!	3014
071819	16:32:35	1	6	5.0.14.0	3	20	block3	pretrainWithFeedback	0	0	0	0	Beth	1	1808	3	C21Q.jpeg	-1	1	correct!	1826
071819	16:32:35	1	6	5.0.14.0	3	21	block3	pretrainWithFeedback	0	0	0	0	Jeffery	0	3961	2	C12Q.jpeg	0	2	Wrong! It's Jeffrey	3996
071819	16:32:35	1	6	5.0.14.0	3	22	block3	pretrainWithFeedback	0	0	0	0	Tobias	1	3781	18	C282Q.jpeg	3	1	correct!	3809
071819	16:32:35	1	6	5.0.14.0	3	23	block3	pretrainWithFeedback	0	0	0	0	Bill	1	1978	10	C192Q.jpeg	3	1	correct!	2010
071819	16:32:35	1	6	5.0.14.0	3	24	block3	pretrainWithFeedback	0	0	0	0	Linda	0	7250	21	C341Q.jpeg	-1	21	Wrong! It's Vivian	7280
071819	16:32:35	1	6	5.0.14.0	4	1	block4	pretrainWithFeedback	0	0	0	0	Steph	1	1869	7	C171Q.jpeg	1	1	correct!	1893
071819	16:32:35	1	6	5.0.14.0	4	2	block4	pretrainWithFeedback	0	0	0	0	Dennis	1	2972	22	C342Q.jpeg	3	1	correct!	3010
071819	16:32:35	1	6	5.0.14.0	4	3	block4	pretrainWithFeedback	0	0	0	0	Simon	1	6028	14	C222Q.jpeg	0	1	correct!	6064
071819	16:32:35	1	6	5.0.14.0	4	4	block4	pretrainWithFeedback	0	0	0	0	Felix	1	1920	12	C202Q.jpeg	0	1	correct!	1942
071819	16:32:35	1	6	5.0.14.0	4	5	block4	pretrainWithFeedback	0	0	0	0	Solomon	1	2406	20	C292Q.jpeg	3	1	correct!	2429
071819	16:32:35	1	6	5.0.14.0	4	6	block4	pretrainWithFeedback	0	0	0	0	Chris	1	2586	16	C232Q.jpeg	0	1	correct!	2614
071819	16:32:35	1	6	5.0.14.0	4	7	block4	pretrainWithFeedback	0	0	0	0	Jolene	1	2766	1	C11Q.jpeg	0	1	correct!	2794
071819	16:32:35	1	6	5.0.14.0	4	8	block4	pretrainWithFeedback	0	0	0	0	Vera	1	1882	19	C291Q.jpeg	3	1	correct!	1909
071819	16:32:35	1	6	5.0.14.0	4	9	block4	pretrainWithFeedback	0	0	0	0	Jeffrey	1	3364	2	C12Q.jpeg	0	1	correct!	3396
071819	16:32:35	1	6	5.0.14.0	4	10	block4	pretrainWithFeedback	0	0	0	0	Tobias	1	2330	18	C282Q.jpeg	0	1	correct!	2362
071819	16:32:35	1	6	5.0.14.0	4	11	block4	pretrainWithFeedback	0	0	0	0	Bill	1	1955	10	C192Q.jpeg	-1	1	correct!	1976
071819	16:32:35	1	6	5.0.14.0	4	12	block4	pretrainWithFeedback	0	0	0	0	Angela	1	1786	23	C381Q.jpeg	0	1	correct!	1813
071819	16:32:35	1	6	5.0.14.0	4	13	block4	pretrainWithFeedback	0	0	0	0	Shannon	1	3356	17	C281Q.jpeg	0	1	correct!	3379
071819	16:32:35	1	6	5.0.14.0	4	14	block4	pretrainWithFeedback	0	0	0	0	Jennifer	1	3342	5	C61Q.jpeg	3	1	correct!	3377
071819	16:32:35	1	6	5.0.14.0	4	15	block4	pretrainWithFeedback	0	0	0	0	Vivian	1	2240	21	C341Q.jpeg	4	1	correct!	2276
071819	16:32:35	1	6	5.0.14.0	4	16	block4	pretrainWithFeedback	0	0	0	0	Dave	1	1674	24	C382Q.jpeg	3	1	correct!	1711
071819	16:32:35	1	6	5.0.14.0	4	17	block4	pretrainWithFeedback	0	0	0	0	Magdalene	1	3802	15	C231Q.jpeg	4	1	correct!	3829
071819	16:32:35	1	6	5.0.14.0	4	18	block4	pretrainWithFeedback	0	0	0	0	Doreen	1	2131	13	C221Q.jpeg	-1	1	correct!	2161
071819	16:32:35	1	6	5.0.14.0	4	19	block4	pretrainWithFeedback	0	0	0	0	Bob	1	1638	6	C62Q.jpeg	0	1	correct!	1660
071819	16:32:35	1	6	5.0.14.0	4	20	block4	pretrainWithFeedback	0	0	0	0	Jim	1	1799	4	C22Q.jpeg	0	1	correct!	1827
071819	16:32:35	1	6	5.0.14.0	4	21	block4	pretrainWithFeedback	0	0	0	0	Hannah	1	4918	9	C191Q.jpeg	3	1	correct!	4946
071819	16:32:35	1	6	5.0.14.0	4	22	block4	pretrainWithFeedback	0	0	0	0	Harold	1	2359	8	C172Q.jpeg	-1	1	correct!	2395
071819	16:32:35	1	6	5.0.14.0	4	23	block4	pretrainWithFeedback	0	0	0	0	Beth	1	1711	3	C21Q.jpeg	-2	1	correct!	1746
071819	16:32:35	1	6	5.0.14.0	4	24	block4	pretrainWithFeedback	0	0	0	0	Camille	1	9964	11	C201Q.jpeg	0	1	correct!	9998
072319	14:02:31	1	7	5.0.14.0	1	1	block1	pretrain	0	0	0	0	0	0	5000	17	C281.jpeg	-5	1	blank	3991
072319	14:02:31	1	7	5.0.14.0	1	2	block1	pretrain	0	0	0	0	0	0	5000	20	C292.jpeg	-6	1	blank	3993
072319	14:02:31	1	7	5.0.14.0	1	3	block1	pretrain	0	0	0	0	0	0	5000	22	C342.jpeg	-8	1	blank	3993
072319	14:02:31	1	7	5.0.14.0	1	4	block1	pretrain	0	0	0	0	0	0	5000	14	C222.jpeg	-8	1	blank	3993
072319	14:02:31	1	7	5.0.14.0	1	5	block1	pretrain	0	0	0	0	0	0	5000	3	C21.jpeg	-8	1	blank	3993
072319	14:02:31	1	7	5.0.14.0	1	6	block1	pretrain	0	0	0	0	0	0	5000	13	C221.jpeg	-8	1	blank	3993
072319	14:02:31	1	7	5.0.14.0	1	7	block1	pretrain	0	0	0	0	0	0	5000	23	C381.jpeg	-8	1	blank	3993
072319	14:02:31	1	7	5.0.14.0	1	8	block1	pretrain	0	0	0	0	0	0	5000	16	C232.jpeg	-8	1	blank	3993
072319	14:02:31	1	7	5.0.14.0	1	9	block1	pretrain	0	0	0	0	0	0	5000	1	C11.jpeg	-8	1	blank	3993
072319	14:02:31	1	7	5.0.14.0	1	10	block1	pretrain	0	0	0	0	0	0	5000	11	C201.jpeg	-8	1	blank	3993
072319	14:02:31	1	7	5.0.14.0	1	11	block1	pretrain	0	0	0	0	0	0	5000	21	C341.jpeg	-8	1	blank	3993
072319	14:02:31	1	7	5.0.14.0	1	12	block1	pretrain	0	0	0	0	0	0	5000	12	C202.jpeg	-8	1	blank	3992
072319	14:02:31	1	7	5.0.14.0	1	13	block1	pretrain	0	0	0	0	0	0	5000	6	C62.jpeg	-8	1	blank	3993
072319	14:02:31	1	7	5.0.14.0	1	14	block1	pretrain	0	0	0	0	0	0	5000	15	C231.jpeg	-8	1	blank	3993
072319	14:02:31	1	7	5.0.14.0	1	15	block1	pretrain	0	0	0	0	0	0	5000	5	C61.jpeg	-8	1	blank	3993
072319	14:02:31	1	7	5.0.14.0	1	16	block1	pretrain	0	0	0	0	0	0	5000	18	C282.jpeg	-8	1	blank	3993
072319	14:02:31	1	7	5.0.14.0	1	17	block1	pretrain	0	0	0	0	0	0	5000	10	C192.jpeg	-8	1	blank	3993
072319	14:02:31	1	7	5.0.14.0	1	18	block1	pretrain	0	0	0	0	0	0	5000	19	C291.jpeg	-8	1	blank	3993
072319	14:02:31	1	7	5.0.14.0	1	19	block1	pretrain	0	0	0	0	0	0	5000	2	C12.jpeg	-8	1	blank	3993
072319	14:02:31	1	7	5.0.14.0	1	20	block1	pretrain	0	0	0	0	0	0	5000	4	C22.jpeg	-8	1	blank	3993
072319	14:02:31	1	7	5.0.14.0	1	21	block1	pretrain	0	0	0	0	0	0	5000	7	C171.jpeg	-8	1	blank	3993
072319	14:02:31	1	7	5.0.14.0	1	22	block1	pretrain	0	0	0	0	0	0	5000	24	C382.jpeg	-8	1	blank	3993
072319	14:02:31	1	7	5.0.14.0	1	23	block1	pretrain	0	0	0	0	0	0	5000	8	C172.jpeg	-8	1	blank	3993
072319	14:02:31	1	7	5.0.14.0	1	24	block1	pretrain	0	0	0	0	0	0	5000	9	C191.jpeg	-8	1	blank	3993
072319	14:02:31	1	7	5.0.14.0	2	1	block2	pretrain	0	0	0	0	0	0	5000	12	C202.jpeg	-8	1	blank	3991
072319	14:02:31	1	7	5.0.14.0	2	2	block2	pretrain	0	0	0	0	0	0	5000	1	C11.jpeg	-8	1	blank	3993
072319	14:02:31	1	7	5.0.14.0	2	3	block2	pretrain	0	0	0	0	0	0	5000	18	C282.jpeg	-8	1	blank	3993
072319	14:02:31	1	7	5.0.14.0	2	4	block2	pretrain	0	0	0	0	0	0	5000	13	C221.jpeg	-8	1	blank	3993
072319	14:02:31	1	7	5.0.14.0	2	5	block2	pretrain	0	0	0	0	0	0	5000	15	C231.jpeg	-8	1	blank	3993
072319	14:02:31	1	7	5.0.14.0	2	6	block2	pretrain	0	0	0	0	0	0	5000	14	C222.jpeg	-8	1	blank	3993
072319	14:02:31	1	7	5.0.14.0	2	7	block2	pretrain	0	0	0	0	0	0	5000	21	C341.jpeg	-8	1	blank	3993
072319	14:02:31	1	7	5.0.14.0	2	8	block2	pretrain	0	0	0	0	0	0	5000	8	C172.jpeg	-8	1	blank	3991
072319	14:02:31	1	7	5.0.14.0	2	9	block2	pretrain	0	0	0	0	0	0	5000	4	C22.jpeg	-8	1	blank	3991
072319	14:02:31	1	7	5.0.14.0	2	10	block2	pretrain	0	0	0	0	0	0	5000	6	C62.jpeg	-8	1	blank	3993
072319	14:02:31	1	7	5.0.14.0	2	11	block2	pretrain	0	0	0	0	0	0	5000	3	C21.jpeg	-8	1	blank	3993
072319	14:02:31	1	7	5.0.14.0	2	12	block2	pretrain	0	0	0	0	0	0	5000	11	C201.jpeg	-8	1	blank	3993
072319	14:02:31	1	7	5.0.14.0	2	13	block2	pretrain	0	0	0	0	0	0	5000	10	C192.jpeg	-8	1	blank	3993
072319	14:02:31	1	7	5.0.14.0	2	14	block2	pretrain	0	0	0	0	0	0	5000	7	C171.jpeg	-8	1	blank	3993
072319	14:02:31	1	7	5.0.14.0	2	15	block2	pretrain	0	0	0	0	0	0	5000	17	C281.jpeg	-8	1	blank	3993
072319	14:02:31	1	7	5.0.14.0	2	16	block2	pretrain	0	0	0	0	0	0	5000	16	C232.jpeg	-8	1	blank	3993
072319	14:02:31	1	7	5.0.14.0	2	17	block2	pretrain	0	0	0	0	0	0	5000	9	C191.jpeg	-8	1	blank	3993
072319	14:02:31	1	7	5.0.14.0	2	18	block2	pretrain	0	0	0	0	0	0	5000	23	C381.jpeg	-8	1	blank	3993
072319	14:02:31	1	7	5.0.14.0	2	19	block2	pretrain	0	0	0	0	0	0	5000	2	C12.jpeg	-8	1	blank	3993
072319	14:02:31	1	7	5.0.14.0	2	20	block2	pretrain	0	0	0	0	0	0	5000	22	C342.jpeg	-8	1	blank	3990
072319	14:02:31	1	7	5.0.14.0	2	21	block2	pretrain	0	0	0	0	0	0	5000	20	C292.jpeg	-8	1	blank	3993
072319	14:02:31	1	7	5.0.14.0	2	22	block2	pretrain	0	0	0	0	0	0	5000	5	C61.jpeg	-8	1	blank	3993
072319	14:02:31	1	7	5.0.14.0	2	23	block2	pretrain	0	0	0	0	0	0	5000	19	C291.jpeg	-8	1	blank	3993
072319	14:02:31	1	7	5.0.14.0	2	24	block2	pretrain	0	0	0	0	0	0	5000	24	C382.jpeg	-8	1	blank	3993
072319	14:02:31	1	7	5.0.14.0	3	1	block3	pretrainWithFeedback	0	0	0	0	Magdalene	1	6707	15	C231Q.jpeg	34	1	correct!	6746
072319	14:02:31	1	7	5.0.14.0	3	2	block3	pretrainWithFeedback	0	0	0	0	Dave	0	4965	18	C282Q.jpeg	0	18	Wrong! It's Tobias	4996
072319	14:02:31	1	7	5.0.14.0	3	3	block3	pretrainWithFeedback	0	0	0	0	Chris	0	20027	8	C172Q.jpeg	0	8	Wrong! It's Harold	20057
072319	14:02:31	1	7	5.0.14.0	3	4	block3	pretrainWithFeedback	0	0	0	0	Camille	1	3289	11	C201Q.jpeg	-5	1	correct!	3312
072319	14:02:31	1	7	5.0.14.0	3	5	block3	pretrainWithFeedback	0	0	0	0	Chris	1	4028	16	C232Q.jpeg	0	1	correct!	4062
072319	14:02:31	1	7	5.0.14.0	3	6	block3	pretrainWithFeedback	0	0	0	0	Bill	1	2688	10	C192Q.jpeg	-1	1	correct!	2714
072319	14:02:31	1	7	5.0.14.0	3	7	block3	pretrainWithFeedback	0	0	0	0	Hannah	1	2582	9	C191Q.jpeg	-1	1	correct!	2611
072319	14:02:31	1	7	5.0.14.0	3	8	block3	pretrainWithFeedback	0	0	0	0	Jim	0	2217	14	C222Q.jpeg	0	14	Wrong! It's Simon	2245
072319	14:02:31	1	7	5.0.14.0	3	9	block3	pretrainWithFeedback	0	0	0	0	Vera	0	6273	21	C341Q.jpeg	0	21	Wrong! It's Vivian	6298
072319	14:02:31	1	7	5.0.14.0	3	10	block3	pretrainWithFeedback	0	0	0	0	Harole	0	5843	2	C12Q.jpeg	0	2	Wrong! It's Jeffrey	5877
072319	14:02:31	1	7	5.0.14.0	3	11	block3	pretrainWithFeedback	0	0	0	0	TIm	0	4821	12	C202Q.jpeg	3	12	Wrong! It's Felix	4846
072319	14:02:31	1	7	5.0.14.0	3	12	block3	pretrainWithFeedback	0	0	0	0	Jolene	1	4363	1	C11Q.jpeg	0	1	correct!	4395
072319	14:02:31	1	7	5.0.14.0	3	13	block3	pretrainWithFeedback	0	0	0	0	Shannon	1	4536	17	C281Q.jpeg	3	1	correct!	4562
072319	14:02:31	1	7	5.0.14.0	3	14	block3	pretrainWithFeedback	0	0	0	0	JIm	1	3248	4	C22Q.jpeg	0	1	correct!	3279
072319	14:02:31	1	7	5.0.14.0	3	15	block3	pretrainWithFeedback	0	0	0	0	Simone	0	5267	23	C381Q.jpeg	0	23	Wrong! It's Angela	5296
072319	14:02:31	1	7	5.0.14.0	3	16	block3	pretrainWithFeedback	0	0	0	0	Jeff	0	3559	22	C342Q.jpeg	0	22	Wrong! It's Dennis	3596
072319	14:02:31	1	7	5.0.14.0	3	17	block3	pretrainWithFeedback	0	0	0	0	Jennifer	1	3180	5	C61Q.jpeg	3	1	correct!	3209
072319	14:02:31	1	7	5.0.14.0	3	18	block3	pretrainWithFeedback	0	0	0	0	Bob	0	3571	24	C382Q.jpeg	0	24	Wrong! It's Dave	3595
072319	14:02:31	1	7	5.0.14.0	3	19	block3	pretrainWithFeedback	0	0	0	0	Dennis	0	5140	20	C292Q.jpeg	-3	20	Wrong! It's Solomon	5163
072319	14:02:31	1	7	5.0.14.0	3	20	block3	pretrainWithFeedback	0	0	0	0	Bob	1	2364	6	C62Q.jpeg	0	1	correct!	2392
072319	14:02:31	1	7	5.0.14.0	3	21	block3	pretrainWithFeedback	0	0	0	0	Vera	1	1930	19	C291Q.jpeg	-2	1	correct!	1960
072319	14:02:31	1	7	5.0.14.0	3	22	block3	pretrainWithFeedback	0	0	0	0	Maureen	0	8214	13	C221Q.jpeg	0	13	Wrong! It's Doreen	8251
072319	14:02:31	1	7	5.0.14.0	3	23	block3	pretrainWithFeedback	0	0	0	0	Steph	1	8743	7	C171Q.jpeg	-2	1	correct!	8766
072319	14:02:31	1	7	5.0.14.0	3	24	block3	pretrainWithFeedback	0	0	0	0	Doreen	0	7175	3	C21Q.jpeg	-1	3	Wrong! It's Beth	7198
072319	14:02:31	1	7	5.0.14.0	4	1	block4	pretrainWithFeedback	0	0	0	0	Harold	1	5513	8	C172Q.jpeg	2	1	correct!	5547
072319	14:02:31	1	7	5.0.14.0	4	2	block4	pretrainWithFeedback	0	0	0	0	Shannon	1	3722	17	C281Q.jpeg	-2	1	correct!	3745
072319	14:02:31	1	7	5.0.14.0	4	3	block4	pretrainWithFeedback	0	0	0	0	Vera	1	2107	19	C291Q.jpeg	3	1	correct!	2146
072319	14:02:31	1	7	5.0.14.0	4	4	block4	pretrainWithFeedback	0	0	0	0	Steph	1	3647	7	C171Q.jpeg	0	1	correct!	3680
072319	14:02:31	1	7	5.0.14.0	4	5	block4	pretrainWithFeedback	0	0	0	0	Jim	1	4304	4	C22Q.jpeg	0	1	correct!	4334
072319	14:02:31	1	7	5.0.14.0	4	6	block4	pretrainWithFeedback	0	0	0	0	Felix	0	3771	24	C382Q.jpeg	-2	24	Wrong! It's Dave	3796
072319	14:02:31	1	7	5.0.14.0	4	7	block4	pretrainWithFeedback	0	0	0	0	Dave	0	6422	14	C222Q.jpeg	0	14	Wrong! It's Simon	6447
072319	14:02:31	1	7	5.0.14.0	4	8	block4	pretrainWithFeedback	0	0	0	0	Jennifer	1	2617	5	C61Q.jpeg	3	1	correct!	2642
072319	14:02:31	1	7	5.0.14.0	4	9	block4	pretrainWithFeedback	0	0	0	0	Doreen	1	3088	13	C221Q.jpeg	4	1	correct!	3126
072319	14:02:31	1	7	5.0.14.0	4	10	block4	pretrainWithFeedback	0	0	0	0	Simon	0	8611	18	C282Q.jpeg	0	18	Wrong! It's Tobias	8631
072319	14:02:31	1	7	5.0.14.0	4	11	block4	pretrainWithFeedback	0	0	0	0	Shannon	0	10741	23	C381Q.jpeg	4	23	Wrong! It's Angela	10766
072319	14:02:31	1	7	5.0.14.0	4	12	block4	pretrainWithFeedback	0	0	0	0	Bob	1	3186	6	C62Q.jpeg	0	1	correct!	3212
072319	14:02:31	1	7	5.0.14.0	4	13	block4	pretrainWithFeedback	0	0	0	0	Bill	1	2669	10	C192Q.jpeg	-1	1	correct!	2693
072319	14:02:31	1	7	5.0.14.0	4	14	block4	pretrainWithFeedback	0	0	0	0	Chris	1	2049	16	C232Q.jpeg	3	1	correct!	2076
072319	14:02:31	1	7	5.0.14.0	4	15	block4	pretrainWithFeedback	0	0	0	0	Solomon	1	3531	20	C292Q.jpeg	0	1	correct!	3562
072319	14:02:31	1	7	5.0.14.0	4	16	block4	pretrainWithFeedback	0	0	0	0	Camille	1	3025	11	C201Q.jpeg	0	1	correct!	3046
072319	14:02:31	1	7	5.0.14.0	4	17	block4	pretrainWithFeedback	0	0	0	0	Magdalene	1	3353	15	C231Q.jpeg	0	1	correct!	3379
072319	14:02:31	1	7	5.0.14.0	4	18	block4	pretrainWithFeedback	0	0	0	0	Sharon	0	11367	3	C21Q.jpeg	-1	3	Wrong! It's Beth	11399
072319	14:02:31	1	7	5.0.14.0	4	19	block4	pretrainWithFeedback	0	0	0	0	Felix	0	4251	2	C12Q.jpeg	0	2	Wrong! It's Jeffrey	4276
072319	14:02:31	1	7	5.0.14.0	4	20	block4	pretrainWithFeedback	0	0	0	0	Jolene	1	4862	1	C11Q.jpeg	2	1	correct!	4898
072319	14:02:31	1	7	5.0.14.0	4	21	block4	pretrainWithFeedback	0	0	0	0	Felix	1	4900	12	C202Q.jpeg	-1	1	correct!	4929
072319	14:02:31	1	7	5.0.14.0	4	22	block4	pretrainWithFeedback	0	0	0	0	Hannah	1	2355	9	C191Q.jpeg	-1	1	correct!	2377
072319	14:02:31	1	7	5.0.14.0	4	23	block4	pretrainWithFeedback	0	0	0	0	Jess	0	7797	21	C341Q.jpeg	4	21	Wrong! It's Vivian	7830
072319	14:02:31	1	7	5.0.14.0	4	24	block4	pretrainWithFeedback	0	0	0	0	Dennis	1	3451	22	C342Q.jpeg	3	1	correct!	3479
073019	13:32:59	1	8	5.0.14.0	1	1	block1	pretrain	0	0	0	0	0	0	5000	12	C202.jpeg	11	1	blank	3992
073019	13:32:59	1	8	5.0.14.0	1	2	block1	pretrain	0	0	0	0	0	0	5000	2	C12.jpeg	-7	1	blank	3992
073019	13:32:59	1	8	5.0.14.0	1	3	block1	pretrain	0	0	0	0	0	0	5000	19	C291.jpeg	-8	1	blank	3993
073019	13:32:59	1	8	5.0.14.0	1	4	block1	pretrain	0	0	0	0	0	0	5000	8	C172.jpeg	-8	1	blank	3993
073019	13:32:59	1	8	5.0.14.0	1	5	block1	pretrain	0	0	0	0	0	0	5000	6	C62.jpeg	-8	1	blank	3993
073019	13:32:59	1	8	5.0.14.0	1	6	block1	pretrain	0	0	0	0	0	0	5000	14	C222.jpeg	-8	1	blank	3991
073019	13:32:59	1	8	5.0.14.0	1	7	block1	pretrain	0	0	0	0	0	0	5000	4	C22.jpeg	-8	1	blank	3993
073019	13:32:59	1	8	5.0.14.0	1	8	block1	pretrain	0	0	0	0	0	0	5000	24	C382.jpeg	-8	1	blank	3991
073019	13:32:59	1	8	5.0.14.0	1	9	block1	pretrain	0	0	0	0	0	0	5000	16	C232.jpeg	-8	1	blank	3991
073019	13:32:59	1	8	5.0.14.0	1	10	block1	pretrain	0	0	0	0	0	0	5000	3	C21.jpeg	-8	1	blank	3993
073019	13:32:59	1	8	5.0.14.0	1	11	block1	pretrain	0	0	0	0	0	0	5000	17	C281.jpeg	-8	1	blank	3993
073019	13:32:59	1	8	5.0.14.0	1	12	block1	pretrain	0	0	0	0	0	0	5000	7	C171.jpeg	-8	1	blank	3993
073019	13:32:59	1	8	5.0.14.0	1	13	block1	pretrain	0	0	0	0	0	0	5000	10	C192.jpeg	-8	1	blank	3993
073019	13:32:59	1	8	5.0.14.0	1	14	block1	pretrain	0	0	0	0	0	0	5000	9	C191.jpeg	-8	1	blank	3993
073019	13:32:59	1	8	5.0.14.0	1	15	block1	pretrain	0	0	0	0	0	0	5000	15	C231.jpeg	-8	1	blank	3992
073019	13:32:59	1	8	5.0.14.0	1	16	block1	pretrain	0	0	0	0	0	0	5000	21	C341.jpeg	-8	1	blank	3993
073019	13:32:59	1	8	5.0.14.0	1	17	block1	pretrain	0	0	0	0	0	0	5000	11	C201.jpeg	-8	1	blank	3993
073019	13:32:59	1	8	5.0.14.0	1	18	block1	pretrain	0	0	0	0	0	0	5000	23	C381.jpeg	-8	1	blank	3993
073019	13:32:59	1	8	5.0.14.0	1	19	block1	pretrain	0	0	0	0	0	0	5000	13	C221.jpeg	-8	1	blank	3993
073019	13:32:59	1	8	5.0.14.0	1	20	block1	pretrain	0	0	0	0	0	0	5000	18	C282.jpeg	-8	1	blank	3993
073019	13:32:59	1	8	5.0.14.0	1	21	block1	pretrain	0	0	0	0	0	0	5000	5	C61.jpeg	-8	1	blank	3993
073019	13:32:59	1	8	5.0.14.0	1	22	block1	pretrain	0	0	0	0	0	0	5000	20	C292.jpeg	-8	1	blank	3993
073019	13:32:59	1	8	5.0.14.0	1	23	block1	pretrain	0	0	0	0	0	0	5000	22	C342.jpeg	-8	1	blank	3993
073019	13:32:59	1	8	5.0.14.0	1	24	block1	pretrain	0	0	0	0	0	0	5000	1	C11.jpeg	-8	1	blank	3992
073019	13:32:59	1	8	5.0.14.0	2	1	block2	pretrain	0	0	0	0	0	0	5000	14	C222.jpeg	-8	1	blank	3991
073019	13:32:59	1	8	5.0.14.0	2	2	block2	pretrain	0	0	0	0	0	0	5000	13	C221.jpeg	-8	1	blank	3993
073019	13:32:59	1	8	5.0.14.0	2	3	block2	pretrain	0	0	0	0	0	0	5000	4	C22.jpeg	-8	1	blank	3991
073019	13:32:59	1	8	5.0.14.0	2	4	block2	pretrain	0	0	0	0	0	0	5000	9	C191.jpeg	-8	1	blank	3993
073019	13:32:59	1	8	5.0.14.0	2	5	block2	pretrain	0	0	0	0	0	0	5000	18	C282.jpeg	-8	1	blank	3991
073019	13:32:59	1	8	5.0.14.0	2	6	block2	pretrain	0	0	0	0	0	0	5000	10	C192.jpeg	-8	1	blank	3993
073019	13:32:59	1	8	5.0.14.0	2	7	block2	pretrain	0	0	0	0	0	0	5000	5	C61.jpeg	-8	1	blank	3993
073019	13:32:59	1	8	5.0.14.0	2	8	block2	pretrain	0	0	0	0	0	0	5000	3	C21.jpeg	-8	1	blank	3993
073019	13:32:59	1	8	5.0.14.0	2	9	block2	pretrain	0	0	0	0	0	0	5000	8	C172.jpeg	-8	1	blank	3991
073019	13:32:59	1	8	5.0.14.0	2	10	block2	pretrain	0	0	0	0	0	0	5000	22	C342.jpeg	-8	1	blank	3991
073019	13:32:59	1	8	5.0.14.0	2	11	block2	pretrain	0	0	0	0	0	0	5000	23	C381.jpeg	-8	1	blank	3993
073019	13:32:59	1	8	5.0.14.0	2	12	block2	pretrain	0	0	0	0	0	0	5000	24	C382.jpeg	-8	1	blank	3993
073019	13:32:59	1	8	5.0.14.0	2	13	block2	pretrain	0	0	0	0	0	0	5000	15	C231.jpeg	-8	1	blank	3993
073019	13:32:59	1	8	5.0.14.0	2	14	block2	pretrain	0	0	0	0	0	0	5000	21	C341.jpeg	-8	1	blank	3993
073019	13:32:59	1	8	5.0.14.0	2	15	block2	pretrain	0	0	0	0	0	0	5000	1	C11.jpeg	-8	1	blank	3993
073019	13:32:59	1	8	5.0.14.0	2	16	block2	pretrain	0	0	0	0	0	0	5000	16	C232.jpeg	-8	1	blank	3993
073019	13:32:59	1	8	5.0.14.0	2	17	block2	pretrain	0	0	0	0	0	0	5000	7	C171.jpeg	-8	1	blank	3992
073019	13:32:59	1	8	5.0.14.0	2	18	block2	pretrain	0	0	0	0	0	0	5000	17	C281.jpeg	-8	1	blank	3993
073019	13:32:59	1	8	5.0.14.0	2	19	block2	pretrain	0	0	0	0	0	0	5000	2	C12.jpeg	-8	1	blank	3993
073019	13:32:59	1	8	5.0.14.0	2	20	block2	pretrain	0	0	0	0	0	0	5000	6	C62.jpeg	-8	1	blank	3993
073019	13:32:59	1	8	5.0.14.0	2	21	block2	pretrain	0	0	0	0	0	0	5000	19	C291.jpeg	-8	1	blank	3993
073019	13:32:59	1	8	5.0.14.0	2	22	block2	pretrain	0	0	0	0	0	0	5000	11	C201.jpeg	-8	1	blank	3993
073019	13:32:59	1	8	5.0.14.0	2	23	block2	pretrain	0	0	0	0	0	0	5000	20	C292.jpeg	-8	1	blank	3993
073019	13:32:59	1	8	5.0.14.0	2	24	block2	pretrain	0	0	0	0	0	0	5000	12	C202.jpeg	-8	1	blank	3992
073019	13:32:59	1	8	5.0.14.0	3	1	block3	pretrainWithFeedback	0	0	0	0	Bob	1	4704	6	C62Q.jpeg	34	1	correct!	4746
073019	13:32:59	1	8	5.0.14.0	3	2	block3	pretrainWithFeedback	0	0	0	0	Vera	0	4465	15	C231Q.jpeg	3	15	Wrong! It's Magdalene	4492
073019	13:32:59	1	8	5.0.14.0	3	3	block3	pretrainWithFeedback	0	0	0	0	Steph	0	5871	21	C341Q.jpeg	-3	21	Wrong! It's Vivian	5895
073019	13:32:59	1	8	5.0.14.0	3	4	block3	pretrainWithFeedback	0	0	0	0	Felix	1	3635	12	C202Q.jpeg	-7	1	correct!	3647
073019	13:32:59	1	8	5.0.14.0	3	5	block3	pretrainWithFeedback	0	0	0	0	Vera	1	1967	19	C291Q.jpeg	0	1	correct!	1996
073019	13:32:59	1	8	5.0.14.0	3	6	block3	pretrainWithFeedback	0	0	0	0	Jolene	1	2811	1	C11Q.jpeg	-1	1	correct!	2843
073019	13:32:59	1	8	5.0.14.0	3	7	block3	pretrainWithFeedback	0	0	0	0	Solomon	1	2388	20	C292Q.jpeg	3	1	correct!	2426
073019	13:32:59	1	8	5.0.14.0	3	8	block3	pretrainWithFeedback	0	0	0	0	Beth	1	2471	3	C21Q.jpeg	0	1	correct!	2496
073019	13:32:59	1	8	5.0.14.0	3	9	block3	pretrainWithFeedback	0	0	0	0	Shannon	1	4721	17	C281Q.jpeg	0	1	correct!	4745
073019	13:32:59	1	8	5.0.14.0	3	10	block3	pretrainWithFeedback	0	0	0	0	Bill	0	5675	14	C222Q.jpeg	3	14	Wrong! It's Simon	5713
073019	13:32:59	1	8	5.0.14.0	3	11	block3	pretrainWithFeedback	0	0	0	0	Steph	1	2292	7	C171Q.jpeg	-5	1	correct!	2313
073019	13:32:59	1	8	5.0.14.0	3	12	block3	pretrainWithFeedback	0	0	0	0	Jennifer	1	4828	5	C61Q.jpeg	-2	1	correct!	4862
073019	13:32:59	1	8	5.0.14.0	3	13	block3	pretrainWithFeedback	0	0	0	0	Bob	0	7129	4	C22Q.jpeg	3	4	Wrong! It's Jim	7162
073019	13:32:59	1	8	5.0.14.0	3	14	block3	pretrainWithFeedback	0	0	0	0	Beth	0	3930	9	C191Q.jpeg	0	9	Wrong! It's Hannah	3963
073019	13:32:59	1	8	5.0.14.0	3	15	block3	pretrainWithFeedback	0	0	0	0	Jennifer	0	6546	23	C381Q.jpeg	1	23	Wrong! It's Angela	6579
073019	13:32:59	1	8	5.0.14.0	3	16	block3	pretrainWithFeedback	0	0	0	0	Anna	0	4491	13	C221Q.jpeg	-5	13	Wrong! It's Doreen	4514
073019	13:32:59	1	8	5.0.14.0	3	17	block3	pretrainWithFeedback	0	0	0	0	Camilla	0	4933	11	C201Q.jpeg	-6	11	Wrong! It's Camille	4946
073019	13:32:59	1	8	5.0.14.0	3	18	block3	pretrainWithFeedback	0	0	0	0	Bob	0	8672	10	C192Q.jpeg	0	10	Wrong! It's Bill	8700
073019	13:32:59	1	8	5.0.14.0	3	19	block3	pretrainWithFeedback	0	0	0	0	Bill	0	15430	18	C282Q.jpeg	-6	18	Wrong! It's Tobias	15451
073019	13:32:59	1	8	5.0.14.0	3	20	block3	pretrainWithFeedback	0	0	0	0	Tom	0	4763	2	C12Q.jpeg	3	2	Wrong! It's Jeffrey	4794
073019	13:32:59	1	8	5.0.14.0	3	21	block3	pretrainWithFeedback	0	0	0	0	Tom	0	4462	8	C172Q.jpeg	0	8	Wrong! It's Harold	4496
073019	13:32:59	1	8	5.0.14.0	3	22	block3	pretrainWithFeedback	0	0	0	0	Chris	0	2428	22	C342Q.jpeg	-7	22	Wrong! It's Dennis	2445
073019	13:32:59	1	8	5.0.14.0	3	23	block3	pretrainWithFeedback	0	0	0	0	Tom	0	2084	24	C382Q.jpeg	-5	24	Wrong! It's Dave	2099
073019	13:32:59	1	8	5.0.14.0	3	24	block3	pretrainWithFeedback	0	0	0	0	Chris	1	1598	16	C232Q.jpeg	-6	1	correct!	1608
073019	13:32:59	1	8	5.0.14.0	4	1	block4	pretrainWithFeedback	0	0	0	0	Bill	1	10697	10	C192Q.jpeg	0	1	correct!	10734
073019	13:32:59	1	8	5.0.14.0	4	2	block4	pretrainWithFeedback	0	0	0	0	Dennis	1	3295	22	C342Q.jpeg	0	1	correct!	3330
073019	13:32:59	1	8	5.0.14.0	4	3	block4	pretrainWithFeedback	0	0	0	0	Jennifer	1	3455	5	C61Q.jpeg	3	1	correct!	3495
073019	13:32:59	1	8	5.0.14.0	4	4	block4	pretrainWithFeedback	0	0	0	0	Shannon	0	6437	13	C221Q.jpeg	0	13	Wrong! It's Doreen	6463
073019	13:32:59	1	8	5.0.14.0	4	5	block4	pretrainWithFeedback	0	0	0	0	Shannon	1	4841	17	C281Q.jpeg	-5	1	correct!	4862
073019	13:32:59	1	8	5.0.14.0	4	6	block4	pretrainWithFeedback	0	0	0	0	Tom	0	4237	4	C22Q.jpeg	-4	4	Wrong! It's Jim	4260
073019	13:32:59	1	8	5.0.14.0	4	7	block4	pretrainWithFeedback	0	0	0	0	Beth	1	2214	3	C21Q.jpeg	-4	1	correct!	2243
073019	13:32:59	1	8	5.0.14.0	4	8	block4	pretrainWithFeedback	0	0	0	0	Tobias	0	5269	8	C172Q.jpeg	0	8	Wrong! It's Harold	5299
073019	13:32:59	1	8	5.0.14.0	4	9	block4	pretrainWithFeedback	0	0	0	0	Chris	1	1673	16	C232Q.jpeg	-6	1	correct!	1693
073019	13:32:59	1	8	5.0.14.0	4	10	block4	pretrainWithFeedback	0	0	0	0	Vera	1	4475	19	C291Q.jpeg	0	1	correct!	4497
073019	13:32:59	1	8	5.0.14.0	4	11	block4	pretrainWithFeedback	0	0	0	0	Beth	0	3900	21	C341Q.jpeg	4	21	Wrong! It's Vivian	3926
073019	13:32:59	1	8	5.0.14.0	4	12	block4	pretrainWithFeedback	0	0	0	0	Harold	0	3350	2	C12Q.jpeg	-4	2	Wrong! It's Jeffrey	3377
073019	13:32:59	1	8	5.0.14.0	4	13	block4	pretrainWithFeedback	0	0	0	0	Solomon	1	2442	20	C292Q.jpeg	-3	1	correct!	2460
073019	13:32:59	1	8	5.0.14.0	4	14	block4	pretrainWithFeedback	0	0	0	0	Bill	0	4788	18	C282Q.jpeg	4	18	Wrong! It's Tobias	4828
073019	13:32:59	1	8	5.0.14.0	4	15	block4	pretrainWithFeedback	0	0	0	0	Jolene	1	1984	1	C11Q.jpeg	-4	1	correct!	2010
073019	13:32:59	1	8	5.0.14.0	4	16	block4	pretrainWithFeedback	0	0	0	0	Camille	1	3349	11	C201Q.jpeg	4	1	correct!	3380
073019	13:32:59	1	8	5.0.14.0	4	17	block4	pretrainWithFeedback	0	0	0	0	Steph	1	2022	7	C171Q.jpeg	-1	1	correct!	2048
073019	13:32:59	1	8	5.0.14.0	4	18	block4	pretrainWithFeedback	0	0	0	0	Felix	1	2753	12	C202Q.jpeg	-2	1	correct!	2780
073019	13:32:59	1	8	5.0.14.0	4	19	block4	pretrainWithFeedback	0	0	0	0	Dave	1	6387	24	C382Q.jpeg	-1	1	correct!	6414
073019	13:32:59	1	8	5.0.14.0	4	20	block4	pretrainWithFeedback	0	0	0	0	Hannah	0	8142	15	C231Q.jpeg	0	15	Wrong! It's Magdalene	8163
073019	13:32:59	1	8	5.0.14.0	4	21	block4	pretrainWithFeedback	0	0	0	0	Hannah	1	1857	9	C191Q.jpeg	0	1	correct!	1879
073019	13:32:59	1	8	5.0.14.0	4	22	block4	pretrainWithFeedback	0	0	0	0	Beth	0	5809	23	C381Q.jpeg	0	23	Wrong! It's Angela	5829
073019	13:32:59	1	8	5.0.14.0	4	23	block4	pretrainWithFeedback	0	0	0	0	Tobias	0	4942	14	C222Q.jpeg	0	14	Wrong! It's Simon	4962
073019	13:32:59	1	8	5.0.14.0	4	24	block4	pretrainWithFeedback	0	0	0	0	Bob	1	2088	6	C62Q.jpeg	3	1	correct!	2126
081619	09:51:16	1	9	5.0.14.0	1	1	block1	pretrain	0	0	0	0	0	0	5000	5	C61.jpeg	14	1	blank	3989
081619	09:51:16	1	9	5.0.14.0	1	2	block1	pretrain	0	0	0	0	0	0	5000	18	C282.jpeg	-5	1	blank	3993
081619	09:51:16	1	9	5.0.14.0	1	3	block1	pretrain	0	0	0	0	0	0	5000	6	C62.jpeg	-8	1	blank	3993
081619	09:51:16	1	9	5.0.14.0	1	4	block1	pretrain	0	0	0	0	0	0	5000	4	C22.jpeg	-8	1	blank	3993
081619	09:51:16	1	9	5.0.14.0	1	5	block1	pretrain	0	0	0	0	0	0	5000	14	C222.jpeg	-8	1	blank	3993
081619	09:51:16	1	9	5.0.14.0	1	6	block1	pretrain	0	0	0	0	0	0	5000	9	C191.jpeg	-8	1	blank	3993
081619	09:51:16	1	9	5.0.14.0	1	7	block1	pretrain	0	0	0	0	0	0	5000	22	C342.jpeg	-8	1	blank	3993
081619	09:51:16	1	9	5.0.14.0	1	8	block1	pretrain	0	0	0	0	0	0	5000	17	C281.jpeg	-8	1	blank	3993
081619	09:51:16	1	9	5.0.14.0	1	9	block1	pretrain	0	0	0	0	0	0	5000	12	C202.jpeg	-8	1	blank	3993
081619	09:51:16	1	9	5.0.14.0	1	10	block1	pretrain	0	0	0	0	0	0	5000	1	C11.jpeg	-8	1	blank	3993
081619	09:51:16	1	9	5.0.14.0	1	11	block1	pretrain	0	0	0	0	0	0	5000	2	C12.jpeg	-8	1	blank	3993
081619	09:51:16	1	9	5.0.14.0	1	12	block1	pretrain	0	0	0	0	0	0	5000	13	C221.jpeg	-8	1	blank	3993
081619	09:51:16	1	9	5.0.14.0	1	13	block1	pretrain	0	0	0	0	0	0	5000	15	C231.jpeg	-8	1	blank	3991
081619	09:51:16	1	9	5.0.14.0	1	14	block1	pretrain	0	0	0	0	0	0	5000	24	C382.jpeg	-8	1	blank	3991
081619	09:51:16	1	9	5.0.14.0	1	15	block1	pretrain	0	0	0	0	0	0	5000	8	C172.jpeg	-8	1	blank	3993
081619	09:51:16	1	9	5.0.14.0	1	16	block1	pretrain	0	0	0	0	0	0	5000	21	C341.jpeg	-8	1	blank	3991
081619	09:51:16	1	9	5.0.14.0	1	17	block1	pretrain	0	0	0	0	0	0	5000	7	C171.jpeg	-8	1	blank	3993
081619	09:51:16	1	9	5.0.14.0	1	18	block1	pretrain	0	0	0	0	0	0	5000	23	C381.jpeg	-8	1	blank	4000
081619	09:51:16	1	9	5.0.14.0	1	19	block1	pretrain	0	0	0	0	0	0	5000	3	C21.jpeg	-6	1	blank	4006
081619	09:51:16	1	9	5.0.14.0	1	20	block1	pretrain	0	0	0	0	0	0	5000	19	C291.jpeg	-7	1	blank	3993
081619	09:51:16	1	9	5.0.14.0	1	21	block1	pretrain	0	0	0	0	0	0	5000	20	C292.jpeg	-8	1	blank	3993
081619	09:51:16	1	9	5.0.14.0	1	22	block1	pretrain	0	0	0	0	0	0	5000	11	C201.jpeg	-8	1	blank	3999
081619	09:51:16	1	9	5.0.14.0	1	23	block1	pretrain	0	0	0	0	0	0	5000	16	C232.jpeg	-5	1	blank	3991
081619	09:51:16	1	9	5.0.14.0	1	24	block1	pretrain	0	0	0	0	0	0	5000	10	C192.jpeg	-8	1	blank	3989
081619	09:51:16	1	9	5.0.14.0	2	1	block2	pretrain	0	0	0	0	0	0	5000	4	C22.jpeg	-8	1	blank	3993
081619	09:51:16	1	9	5.0.14.0	2	2	block2	pretrain	0	0	0	0	0	0	5000	21	C341.jpeg	-8	1	blank	3991
081619	09:51:16	1	9	5.0.14.0	2	3	block2	pretrain	0	0	0	0	0	0	5000	9	C191.jpeg	-8	1	blank	4004
081619	09:51:16	1	9	5.0.14.0	2	4	block2	pretrain	0	0	0	0	0	0	5000	3	C21.jpeg	-5	1	blank	3991
081619	09:51:16	1	9	5.0.14.0	2	5	block2	pretrain	0	0	0	0	0	0	5000	14	C222.jpeg	-8	1	blank	3991
081619	09:51:16	1	9	5.0.14.0	2	6	block2	pretrain	0	0	0	0	0	0	5000	5	C61.jpeg	-8	1	blank	3999
081619	09:51:16	1	9	5.0.14.0	2	7	block2	pretrain	0	0	0	0	0	0	5000	22	C342.jpeg	-8	1	blank	3999
081619	09:51:16	1	9	5.0.14.0	2	8	block2	pretrain	0	0	0	0	0	0	5000	17	C281.jpeg	-6	1	blank	3991
081619	09:51:16	1	9	5.0.14.0	2	9	block2	pretrain	0	0	0	0	0	0	5000	13	C221.jpeg	-8	1	blank	3999
081619	09:51:16	1	9	5.0.14.0	2	10	block2	pretrain	0	0	0	0	0	0	5000	2	C12.jpeg	-5	1	blank	3992
081619	09:51:16	1	9	5.0.14.0	2	11	block2	pretrain	0	0	0	0	0	0	5000	15	C231.jpeg	-8	1	blank	3991
081619	09:51:16	1	9	5.0.14.0	2	12	block2	pretrain	0	0	0	0	0	0	5000	12	C202.jpeg	-4	1	blank	3989
081619	09:51:16	1	9	5.0.14.0	2	13	block2	pretrain	0	0	0	0	0	0	5000	16	C232.jpeg	14	1	blank	3991
081619	09:51:16	1	9	5.0.14.0	2	14	block2	pretrain	0	0	0	0	0	0	5000	1	C11.jpeg	-5	1	blank	3999
081619	09:51:16	1	9	5.0.14.0	2	15	block2	pretrain	0	0	0	0	0	0	5000	20	C292.jpeg	-4	1	blank	3991
081619	09:51:16	1	9	5.0.14.0	2	16	block2	pretrain	0	0	0	0	0	0	5000	7	C171.jpeg	-8	1	blank	3991
081619	09:51:16	1	9	5.0.14.0	2	17	block2	pretrain	0	0	0	0	0	0	5000	19	C291.jpeg	-5	1	blank	3996
081619	09:51:16	1	9	5.0.14.0	2	18	block2	pretrain	0	0	0	0	0	0	5000	18	C282.jpeg	-5	1	blank	3993
081619	09:51:16	1	9	5.0.14.0	2	19	block2	pretrain	0	0	0	0	0	0	5000	10	C192.jpeg	-5	1	blank	3998
081619	09:51:16	1	9	5.0.14.0	2	20	block2	pretrain	0	0	0	0	0	0	5000	23	C381.jpeg	-8	1	blank	3991
081619	09:51:16	1	9	5.0.14.0	2	21	block2	pretrain	0	0	0	0	0	0	5000	11	C201.jpeg	-8	1	blank	3993
081619	09:51:16	1	9	5.0.14.0	2	22	block2	pretrain	0	0	0	0	0	0	5000	8	C172.jpeg	-8	1	blank	3991
081619	09:51:16	1	9	5.0.14.0	2	23	block2	pretrain	0	0	0	0	0	0	5000	6	C62.jpeg	-8	1	blank	3991
081619	09:51:16	1	9	5.0.14.0	2	24	block2	pretrain	0	0	0	0	0	0	5000	24	C382.jpeg	-5	1	blank	3991
081619	09:51:16	1	9	5.0.14.0	3	1	block3	pretrainWithFeedback	0	0	0	0	Vivian	0	6159	15	C231Q.jpeg	34	15	Wrong! It's Magdalene	6208
081619	09:51:16	1	9	5.0.14.0	3	2	block3	pretrainWithFeedback	0	0	0	0	Vera	0	2835	11	C201Q.jpeg	0	11	Wrong! It's Camille	2862
081619	09:51:16	1	9	5.0.14.0	3	3	block3	pretrainWithFeedback	0	0	0	0	Felix	1	3828	12	C202Q.jpeg	1	1	correct!	3860
081619	09:51:16	1	9	5.0.14.0	3	4	block3	pretrainWithFeedback	0	0	0	0	Dennis	0	2535	14	C222Q.jpeg	4	14	Wrong! It's Simon	2576
081619	09:51:16	1	9	5.0.14.0	3	5	block3	pretrainWithFeedback	0	0	0	0	Vera	0	4782	9	C191Q.jpeg	3	9	Wrong! It's Hannah	4813
081619	09:51:16	1	9	5.0.14.0	3	6	block3	pretrainWithFeedback	0	0	0	0	Maxwell	0	2968	16	C232Q.jpeg	-2	16	Wrong! It's Chris	2993
081619	09:51:16	1	9	5.0.14.0	3	7	block3	pretrainWithFeedback	0	0	0	0	Dennis	0	4112	18	C282Q.jpeg	12	18	Wrong! It's Tobias	4145
081619	09:51:16	1	9	5.0.14.0	3	8	block3	pretrainWithFeedback	0	0	0	0	Vera	0	2137	21	C341Q.jpeg	0	21	Wrong! It's Vivian	2163
081619	09:51:16	1	9	5.0.14.0	3	9	block3	pretrainWithFeedback	0	0	0	0	Vera	0	2354	1	C11Q.jpeg	0	1	Wrong! It's Jolene	2381
081619	09:51:16	1	9	5.0.14.0	3	10	block3	pretrainWithFeedback	0	0	0	0	Shannion	0	2964	17	C281Q.jpeg	0	17	Wrong! It's Shannon	3001
081619	09:51:16	1	9	5.0.14.0	3	11	block3	pretrainWithFeedback	0	0	0	0	Vera	0	2863	5	C61Q.jpeg	-2	5	Wrong! It's Jennifer	2887
081619	09:51:16	1	9	5.0.14.0	3	12	block3	pretrainWithFeedback	0	0	0	0	Vera	0	3688	7	C171Q.jpeg	0	7	Wrong! It's Steph	3714
081619	09:51:16	1	9	5.0.14.0	3	13	block3	pretrainWithFeedback	0	0	0	0	Maxwell	0	5062	4	C22Q.jpeg	0	4	Wrong! It's Jim	5098
081619	09:51:16	1	9	5.0.14.0	3	14	block3	pretrainWithFeedback	0	0	0	0	Maxwell	0	4268	8	C172Q.jpeg	0	8	Wrong! It's Harold	4298
081619	09:51:16	1	9	5.0.14.0	3	15	block3	pretrainWithFeedback	0	0	0	0	Vera	0	4315	23	C381Q.jpeg	26	23	Wrong! It's Angela	4370
081619	09:51:16	1	9	5.0.14.0	3	16	block3	pretrainWithFeedback	0	0	0	0	Vera	0	8562	13	C221Q.jpeg	12	13	Wrong! It's Doreen	8586
081619	09:51:16	1	9	5.0.14.0	3	17	block3	pretrainWithFeedback	0	0	0	0	Dennis	0	3098	2	C12Q.jpeg	-1	2	Wrong! It's Jeffrey	3131
081619	09:51:16	1	9	5.0.14.0	3	18	block3	pretrainWithFeedback	0	0	0	0	Vera	0	2086	3	C21Q.jpeg	0	3	Wrong! It's Beth	2112
081619	09:51:16	1	9	5.0.14.0	3	19	block3	pretrainWithFeedback	0	0	0	0	Dennis	0	6544	6	C62Q.jpeg	-1	6	Wrong! It's Bob	6564
081619	09:51:16	1	9	5.0.14.0	3	20	block3	pretrainWithFeedback	0	0	0	0	Maxwell	0	6391	24	C382Q.jpeg	-3	24	Wrong! It's Dave	6431
081619	09:51:16	1	9	5.0.14.0	3	21	block3	pretrainWithFeedback	0	0	0	0	Maxwell	0	2152	22	C342Q.jpeg	-1	22	Wrong! It's Dennis	2176
081619	09:51:16	1	9	5.0.14.0	3	22	block3	pretrainWithFeedback	0	0	0	0	Vera	1	1930	19	C291Q.jpeg	-1	1	correct!	1963
081619	09:51:16	1	9	5.0.14.0	3	23	block3	pretrainWithFeedback	0	0	0	0	Jim	0	1988	10	C192Q.jpeg	-1	10	Wrong! It's Bill	2009
081619	09:51:16	1	9	5.0.14.0	3	24	block3	pretrainWithFeedback	0	0	0	0	Maxwell	0	5291	20	C292Q.jpeg	3	20	Wrong! It's Solomon	5331
081619	09:51:16	1	9	5.0.14.0	4	1	block4	pretrainWithFeedback	0	0	0	0	Jeffrey	1	3579	2	C12Q.jpeg	10	1	correct!	3628
081619	09:51:16	1	9	5.0.14.0	4	2	block4	pretrainWithFeedback	0	0	0	0	Camille	1	6867	11	C201Q.jpeg	-1	1	correct!	6901
081619	09:51:16	1	9	5.0.14.0	4	3	block4	pretrainWithFeedback	0	0	0	0	Felix	1	3067	12	C202Q.jpeg	43	1	correct!	3129
081619	09:51:16	1	9	5.0.14.0	4	4	block4	pretrainWithFeedback	0	0	0	0	Michelle	0	3188	23	C381Q.jpeg	0	23	Wrong! It's Angela	3226
081619	09:51:16	1	9	5.0.14.0	4	5	block4	pretrainWithFeedback	0	0	0	0	Shannlon	0	2294	17	C281Q.jpeg	0	17	Wrong! It's Shannon	2327
081619	09:51:16	1	9	5.0.14.0	4	6	block4	pretrainWithFeedback	0	0	0	0	Angela	0	10574	21	C341Q.jpeg	4	21	Wrong! It's Vivian	10616
081619	09:51:16	1	9	5.0.14.0	4	7	block4	pretrainWithFeedback	0	0	0	0	Doreen	0	3619	3	C21Q.jpeg	-2	3	Wrong! It's Beth	3646
081619	09:51:16	1	9	5.0.14.0	4	8	block4	pretrainWithFeedback	0	0	0	0	Tobias	1	5430	18	C282Q.jpeg	0	1	correct!	5463
081619	09:51:16	1	9	5.0.14.0	4	9	block4	pretrainWithFeedback	0	0	0	0	Doreen	0	12962	7	C171Q.jpeg	10	7	Wrong! It's Steph	12999
081619	09:51:16	1	9	5.0.14.0	4	10	block4	pretrainWithFeedback	0	0	0	0	Angela	0	6177	9	C191Q.jpeg	0	9	Wrong! It's Hannah	6199
081619	09:51:16	1	9	5.0.14.0	4	11	block4	pretrainWithFeedback	0	0	0	0	Dennis	1	3388	22	C342Q.jpeg	0	1	correct!	3413
081619	09:51:16	1	9	5.0.14.0	4	12	block4	pretrainWithFeedback	0	0	0	0	Doreen	0	3357	5	C61Q.jpeg	0	5	Wrong! It's Jennifer	3378
081619	09:51:16	1	9	5.0.14.0	4	13	block4	pretrainWithFeedback	0	0	0	0	Vera	1	2035	19	C291Q.jpeg	29	1	correct!	2095
081619	09:51:16	1	9	5.0.14.0	4	14	block4	pretrainWithFeedback	0	0	0	0	Doreen	1	2522	13	C221Q.jpeg	0	1	correct!	2542
081619	09:51:16	1	9	5.0.14.0	4	15	block4	pretrainWithFeedback	0	0	0	0	Jim	0	3169	10	C192Q.jpeg	0	10	Wrong! It's Bill	3196
081619	09:51:16	1	9	5.0.14.0	4	16	block4	pretrainWithFeedback	0	0	0	0	Jm	0	1889	8	C172Q.jpeg	3	8	Wrong! It's Harold	1930
081619	09:51:16	1	9	5.0.14.0	4	17	block4	pretrainWithFeedback	0	0	0	0	Harold	0	4093	14	C222Q.jpeg	0	14	Wrong! It's Simon	4130
081619	09:51:16	1	9	5.0.14.0	4	18	block4	pretrainWithFeedback	0	0	0	0	Dave	0	8841	4	C22Q.jpeg	0	4	Wrong! It's Jim	8864
081619	09:51:16	1	9	5.0.14.0	4	19	block4	pretrainWithFeedback	0	0	0	0	Dave	0	8864	20	C292Q.jpeg	1	20	Wrong! It's Solomon	8896
081619	09:51:16	1	9	5.0.14.0	4	20	block4	pretrainWithFeedback	0	0	0	0	Doreen	0	5088	15	C231Q.jpeg	4	15	Wrong! It's Magdalene	5112
081619	09:51:16	1	9	5.0.14.0	4	21	block4	pretrainWithFeedback	0	0	0	0	Angela	0	12313	1	C11Q.jpeg	0	1	Wrong! It's Jolene	12334
081619	09:51:16	1	9	5.0.14.0	4	22	block4	pretrainWithFeedback	0	0	0	0	Jim	0	21445	6	C62Q.jpeg	4	6	Wrong! It's Bob	21470
081619	09:51:16	1	9	5.0.14.0	4	23	block4	pretrainWithFeedback	0	0	0	0	Maxwell	0	21907	16	C232Q.jpeg	3	16	Wrong! It's Chris	21941
081619	09:51:16	1	9	5.0.14.0	4	24	block4	pretrainWithFeedback	0	0	0	0	Dave	1	11355	24	C382Q.jpeg	0	1	correct!	11383
082319	09:02:00	1	10	5.0.14.0	1	1	block1	pretrain	0	0	0	0	0	0	5000	21	C341.jpeg	15	1	blank	3991
082319	09:02:00	1	10	5.0.14.0	1	2	block1	pretrain	0	0	0	0	0	0	5000	22	C342.jpeg	-7	1	blank	3991
082319	09:02:00	1	10	5.0.14.0	1	3	block1	pretrain	0	0	0	0	0	0	5000	11	C201.jpeg	-5	1	blank	3991
082319	09:02:00	1	10	5.0.14.0	1	4	block1	pretrain	0	0	0	0	0	0	5000	23	C381.jpeg	-8	1	blank	3991
082319	09:02:00	1	10	5.0.14.0	1	5	block1	pretrain	0	0	0	0	0	0	5000	8	C172.jpeg	-8	1	blank	3993
082319	09:02:00	1	10	5.0.14.0	1	6	block1	pretrain	0	0	0	0	0	0	5000	14	C222.jpeg	-8	1	blank	3993
082319	09:02:00	1	10	5.0.14.0	1	7	block1	pretrain	0	0	0	0	0	0	5000	3	C21.jpeg	-8	1	blank	3993
082319	09:02:00	1	10	5.0.14.0	1	8	block1	pretrain	0	0	0	0	0	0	5000	18	C282.jpeg	-8	1	blank	3992
082319	09:02:00	1	10	5.0.14.0	1	9	block1	pretrain	0	0	0	0	0	0	5000	2	C12.jpeg	-8	1	blank	3993
082319	09:02:00	1	10	5.0.14.0	1	10	block1	pretrain	0	0	0	0	0	0	5000	17	C281.jpeg	-8	1	blank	3993
082319	09:02:00	1	10	5.0.14.0	1	11	block1	pretrain	0	0	0	0	0	0	5000	4	C22.jpeg	-8	1	blank	3993
082319	09:02:00	1	10	5.0.14.0	1	12	block1	pretrain	0	0	0	0	0	0	5000	16	C232.jpeg	-8	1	blank	3993
082319	09:02:00	1	10	5.0.14.0	1	13	block1	pretrain	0	0	0	0	0	0	5000	12	C202.jpeg	-8	1	blank	3993
082319	09:02:00	1	10	5.0.14.0	1	14	block1	pretrain	0	0	0	0	0	0	5000	19	C291.jpeg	-8	1	blank	3993
082319	09:02:00	1	10	5.0.14.0	1	15	block1	pretrain	0	0	0	0	0	0	5000	13	C221.jpeg	-8	1	blank	3993
082319	09:02:00	1	10	5.0.14.0	1	16	block1	pretrain	0	0	0	0	0	0	5000	24	C382.jpeg	-8	1	blank	3993
082319	09:02:00	1	10	5.0.14.0	1	17	block1	pretrain	0	0	0	0	0	0	5000	7	C171.jpeg	-8	1	blank	3993
082319	09:02:00	1	10	5.0.14.0	1	18	block1	pretrain	0	0	0	0	0	0	5000	9	C191.jpeg	-8	1	blank	3993
082319	09:02:00	1	10	5.0.14.0	1	19	block1	pretrain	0	0	0	0	0	0	5000	5	C61.jpeg	-8	1	blank	3993
082319	09:02:00	1	10	5.0.14.0	1	20	block1	pretrain	0	0	0	0	0	0	5000	20	C292.jpeg	-8	1	blank	3993
082319	09:02:00	1	10	5.0.14.0	1	21	block1	pretrain	0	0	0	0	0	0	5000	15	C231.jpeg	-8	1	blank	3993
082319	09:02:00	1	10	5.0.14.0	1	22	block1	pretrain	0	0	0	0	0	0	5000	10	C192.jpeg	-8	1	blank	3993
082319	09:02:00	1	10	5.0.14.0	1	23	block1	pretrain	0	0	0	0	0	0	5000	1	C11.jpeg	-8	1	blank	3993
082319	09:02:00	1	10	5.0.14.0	1	24	block1	pretrain	0	0	0	0	0	0	5000	6	C62.jpeg	-8	1	blank	3993
082319	09:02:00	1	10	5.0.14.0	2	1	block2	pretrain	0	0	0	0	0	0	5000	2	C12.jpeg	-8	1	blank	3991
082319	09:02:00	1	10	5.0.14.0	2	2	block2	pretrain	0	0	0	0	0	0	5000	8	C172.jpeg	-8	1	blank	3991
082319	09:02:00	1	10	5.0.14.0	2	3	block2	pretrain	0	0	0	0	0	0	5000	3	C21.jpeg	-8	1	blank	3991
082319	09:02:00	1	10	5.0.14.0	2	4	block2	pretrain	0	0	0	0	0	0	5000	21	C341.jpeg	-8	1	blank	3991
082319	09:02:00	1	10	5.0.14.0	2	5	block2	pretrain	0	0	0	0	0	0	5000	4	C22.jpeg	-8	1	blank	3993
082319	09:02:00	1	10	5.0.14.0	2	6	block2	pretrain	0	0	0	0	0	0	5000	15	C231.jpeg	-8	1	blank	3993
082319	09:02:00	1	10	5.0.14.0	2	7	block2	pretrain	0	0	0	0	0	0	5000	1	C11.jpeg	-8	1	blank	3993
082319	09:02:00	1	10	5.0.14.0	2	8	block2	pretrain	0	0	0	0	0	0	5000	23	C381.jpeg	-8	1	blank	3993
082319	09:02:00	1	10	5.0.14.0	2	9	block2	pretrain	0	0	0	0	0	0	5000	22	C342.jpeg	-8	1	blank	3993
082319	09:02:00	1	10	5.0.14.0	2	10	block2	pretrain	0	0	0	0	0	0	5000	18	C282.jpeg	-8	1	blank	3993
082319	09:02:00	1	10	5.0.14.0	2	11	block2	pretrain	0	0	0	0	0	0	5000	10	C192.jpeg	-8	1	blank	3993
082319	09:02:00	1	10	5.0.14.0	2	12	block2	pretrain	0	0	0	0	0	0	5000	24	C382.jpeg	-8	1	blank	3993
082319	09:02:00	1	10	5.0.14.0	2	13	block2	pretrain	0	0	0	0	0	0	5000	12	C202.jpeg	-8	1	blank	3993
082319	09:02:00	1	10	5.0.14.0	2	14	block2	pretrain	0	0	0	0	0	0	5000	9	C191.jpeg	-8	1	blank	3993
082319	09:02:00	1	10	5.0.14.0	2	15	block2	pretrain	0	0	0	0	0	0	5000	11	C201.jpeg	-8	1	blank	3993
082319	09:02:00	1	10	5.0.14.0	2	16	block2	pretrain	0	0	0	0	0	0	5000	6	C62.jpeg	-8	1	blank	3993
082319	09:02:00	1	10	5.0.14.0	2	17	block2	pretrain	0	0	0	0	0	0	5000	5	C61.jpeg	-8	1	blank	3993
082319	09:02:00	1	10	5.0.14.0	2	18	block2	pretrain	0	0	0	0	0	0	5000	13	C221.jpeg	-8	1	blank	3993
082319	09:02:00	1	10	5.0.14.0	2	19	block2	pretrain	0	0	0	0	0	0	5000	17	C281.jpeg	-8	1	blank	3993
082319	09:02:00	1	10	5.0.14.0	2	20	block2	pretrain	0	0	0	0	0	0	5000	20	C292.jpeg	-8	1	blank	3993
082319	09:02:00	1	10	5.0.14.0	2	21	block2	pretrain	0	0	0	0	0	0	5000	14	C222.jpeg	-8	1	blank	3993
082319	09:02:00	1	10	5.0.14.0	2	22	block2	pretrain	0	0	0	0	0	0	5000	19	C291.jpeg	-8	1	blank	3993
082319	09:02:00	1	10	5.0.14.0	2	23	block2	pretrain	0	0	0	0	0	0	5000	16	C232.jpeg	-8	1	blank	3993
082319	09:02:00	1	10	5.0.14.0	2	24	block2	pretrain	0	0	0	0	0	0	5000	7	C171.jpeg	-8	1	blank	3994
082319	09:02:00	1	10	5.0.14.0	3	1	block3	pretrainWithFeedback	0	0	0	0	Angela	1	8510	23	C381Q.jpeg	34	1	correct!	8545
082319	09:02:00	1	10	5.0.14.0	3	2	block3	pretrainWithFeedback	0	0	0	0	Camille	1	2564	11	C201Q.jpeg	4	1	correct!	2593
082319	09:02:00	1	10	5.0.14.0	3	3	block3	pretrainWithFeedback	0	0	0	0	Bill	0	9938	16	C232Q.jpeg	4	16	Wrong! It's Chris	9965
082319	09:02:00	1	10	5.0.14.0	3	4	block3	pretrainWithFeedback	0	0	0	0	Bill	0	4963	22	C342Q.jpeg	1	22	Wrong! It's Dennis	4995
082319	09:02:00	1	10	5.0.14.0	3	5	block3	pretrainWithFeedback	0	0	0	0	Bill	1	8573	10	C192Q.jpeg	0	1	correct!	8599
082319	09:02:00	1	10	5.0.14.0	3	6	block3	pretrainWithFeedback	0	0	0	0	Jennifer	1	4642	5	C61Q.jpeg	3	1	correct!	4678
082319	09:02:00	1	10	5.0.14.0	3	7	block3	pretrainWithFeedback	0	0	0	0	Vera	1	3239	19	C291Q.jpeg	0	1	correct!	3260
082319	09:02:00	1	10	5.0.14.0	3	8	block3	pretrainWithFeedback	0	0	0	0	Shannon	1	2588	17	C281Q.jpeg	3	1	correct!	2613
082319	09:02:00	1	10	5.0.14.0	3	9	block3	pretrainWithFeedback	0	0	0	0	Soloman	0	4558	20	C292Q.jpeg	3	20	Wrong! It's Solomon	4595
082319	09:02:00	1	10	5.0.14.0	3	10	block3	pretrainWithFeedback	0	0	0	0	Felix	1	6734	12	C202Q.jpeg	0	1	correct!	6763
082319	09:02:00	1	10	5.0.14.0	3	11	block3	pretrainWithFeedback	0	0	0	0	Steph	1	6295	7	C171Q.jpeg	3	1	correct!	6329
082319	09:02:00	1	10	5.0.14.0	3	12	block3	pretrainWithFeedback	0	0	0	0	Jolene	1	2980	1	C11Q.jpeg	3	1	correct!	3010
082319	09:02:00	1	10	5.0.14.0	3	13	block3	pretrainWithFeedback	0	0	0	0	Harold	1	2972	8	C172Q.jpeg	0	1	correct!	3003
082319	09:02:00	1	10	5.0.14.0	3	14	block3	pretrainWithFeedback	0	0	0	0	Dave	1	2716	24	C382Q.jpeg	1	1	correct!	2743
082319	09:02:00	1	10	5.0.14.0	3	15	block3	pretrainWithFeedback	0	0	0	0	Tobias	1	2865	18	C282Q.jpeg	3	1	correct!	2893
082319	09:02:00	1	10	5.0.14.0	3	16	block3	pretrainWithFeedback	0	0	0	0	Jeffrey	1	3480	2	C12Q.jpeg	3	1	correct!	3513
082319	09:02:00	1	10	5.0.14.0	3	17	block3	pretrainWithFeedback	0	0	0	0	Jim	1	4403	4	C22Q.jpeg	2	1	correct!	4430
082319	09:02:00	1	10	5.0.14.0	3	18	block3	pretrainWithFeedback	0	0	0	0	Vivian	1	6088	21	C341Q.jpeg	0	1	correct!	6116
082319	09:02:00	1	10	5.0.14.0	3	19	block3	pretrainWithFeedback	0	0	0	0		0	13329	14	C222Q.jpeg	3	14	Wrong! It's Simon	13364
082319	09:02:00	1	10	5.0.14.0	3	20	block3	pretrainWithFeedback	0	0	0	0	Hannah	1	4813	9	C191Q.jpeg	-1	1	correct!	4847
082319	09:02:00	1	10	5.0.14.0	3	21	block3	pretrainWithFeedback	0	0	0	0	Magdalene	1	4141	15	C231Q.jpeg	0	1	correct!	4161
082319	09:02:00	1	10	5.0.14.0	3	22	block3	pretrainWithFeedback	0	0	0	0	Bob	1	5027	6	C62Q.jpeg	-1	1	correct!	5062
082319	09:02:00	1	10	5.0.14.0	3	23	block3	pretrainWithFeedback	0	0	0	0		0	8439	13	C221Q.jpeg	4	13	Wrong! It's Doreen	8485
082319	09:02:00	1	10	5.0.14.0	3	24	block3	pretrainWithFeedback	0	0	0	0	Beth	1	2898	3	C21Q.jpeg	3	1	correct!	2928
082319	09:02:00	1	10	5.0.14.0	4	1	block4	pretrainWithFeedback	0	0	0	0	Shannon	1	3384	17	C281Q.jpeg	3	1	correct!	3411
082319	09:02:00	1	10	5.0.14.0	4	2	block4	pretrainWithFeedback	0	0	0	0	Beth	1	2527	3	C21Q.jpeg	3	1	correct!	2560
082319	09:02:00	1	10	5.0.14.0	4	3	block4	pretrainWithFeedback	0	0	0	0	Chris	1	4106	16	C232Q.jpeg	3	1	correct!	4130
082319	09:02:00	1	10	5.0.14.0	4	4	block4	pretrainWithFeedback	0	0	0	0	Vera	1	2800	19	C291Q.jpeg	-1	1	correct!	2826
082319	09:02:00	1	10	5.0.14.0	4	5	block4	pretrainWithFeedback	0	0	0	0	Harold	1	2863	8	C172Q.jpeg	3	1	correct!	2896
082319	09:02:00	1	10	5.0.14.0	4	6	block4	pretrainWithFeedback	0	0	0	0	Steph	1	2772	7	C171Q.jpeg	3	1	correct!	2810
082319	09:02:00	1	10	5.0.14.0	4	7	block4	pretrainWithFeedback	0	0	0	0	Simon	1	2408	14	C222Q.jpeg	0	1	correct!	2430
082319	09:02:00	1	10	5.0.14.0	4	8	block4	pretrainWithFeedback	0	0	0	0	Bill	1	5160	10	C192Q.jpeg	3	1	correct!	5196
082319	09:02:00	1	10	5.0.14.0	4	9	block4	pretrainWithFeedback	0	0	0	0	Jennifer	1	3588	5	C61Q.jpeg	-1	1	correct!	3610
082319	09:02:00	1	10	5.0.14.0	4	10	block4	pretrainWithFeedback	0	0	0	0	Vivian	1	6674	21	C341Q.jpeg	5	1	correct!	6715
082319	09:02:00	1	10	5.0.14.0	4	11	block4	pretrainWithFeedback	0	0	0	0	Tobias	1	2684	18	C282Q.jpeg	-2	1	correct!	2712
082319	09:02:00	1	10	5.0.14.0	4	12	block4	pretrainWithFeedback	0	0	0	0	Magdalene	1	3193	15	C231Q.jpeg	0	1	correct!	3230
082319	09:02:00	1	10	5.0.14.0	4	13	block4	pretrainWithFeedback	0	0	0	0		0	8139	22	C342Q.jpeg	-1	22	Wrong! It's Dennis	8164
082319	09:02:00	1	10	5.0.14.0	4	14	block4	pretrainWithFeedback	0	0	0	0	Doreen	1	3576	13	C221Q.jpeg	0	1	correct!	3615
082319	09:02:00	1	10	5.0.14.0	4	15	block4	pretrainWithFeedback	0	0	0	0	Felix	1	4656	12	C202Q.jpeg	-2	1	correct!	4679
082319	09:02:00	1	10	5.0.14.0	4	16	block4	pretrainWithFeedback	0	0	0	0	Solomon	1	5616	20	C292Q.jpeg	0	1	correct!	5643
082319	09:02:00	1	10	5.0.14.0	4	17	block4	pretrainWithFeedback	0	0	0	0	Jolene	1	2996	1	C11Q.jpeg	4	1	correct!	3029
082319	09:02:00	1	10	5.0.14.0	4	18	block4	pretrainWithFeedback	0	0	0	0	Bob	1	3175	6	C62Q.jpeg	3	1	correct!	3211
082319	09:02:00	1	10	5.0.14.0	4	19	block4	pretrainWithFeedback	0	0	0	0	Camille	1	5006	11	C201Q.jpeg	0	1	correct!	5029
082319	09:02:00	1	10	5.0.14.0	4	20	block4	pretrainWithFeedback	0	0	0	0	Dave	1	2559	24	C382Q.jpeg	3	1	correct!	2597
082319	09:02:00	1	10	5.0.14.0	4	21	block4	pretrainWithFeedback	0	0	0	0	Angela	1	3162	23	C381Q.jpeg	3	1	correct!	3197
082319	09:02:00	1	10	5.0.14.0	4	22	block4	pretrainWithFeedback	0	0	0	0	Jeffrey	1	2755	2	C12Q.jpeg	-2	1	correct!	2777
082319	09:02:00	1	10	5.0.14.0	4	23	block4	pretrainWithFeedback	0	0	0	0	Jim	1	2985	4	C22Q.jpeg	2	1	correct!	3009
082319	09:02:00	1	10	5.0.14.0	4	24	block4	pretrainWithFeedback	0	0	0	0	Hannah	1	2593	9	C191Q.jpeg	0	1	correct!	2630
082319	13:07:08	1	11	5.0.14.0	1	1	block1	pretrain	0	0	0	0	0	0	5000	16	C232.jpeg	10	1	blank	3996
082319	13:07:08	1	11	5.0.14.0	1	2	block1	pretrain	0	0	0	0	0	0	5000	12	C202.jpeg	-6	1	blank	3991
082319	13:07:08	1	11	5.0.14.0	1	3	block1	pretrain	0	0	0	0	0	0	5000	15	C231.jpeg	-8	1	blank	3993
082319	13:07:08	1	11	5.0.14.0	1	4	block1	pretrain	0	0	0	0	0	0	5000	9	C191.jpeg	-8	1	blank	3993
082319	13:07:08	1	11	5.0.14.0	1	5	block1	pretrain	0	0	0	0	0	0	5000	14	C222.jpeg	-8	1	blank	3992
082319	13:07:08	1	11	5.0.14.0	1	6	block1	pretrain	0	0	0	0	0	0	5000	17	C281.jpeg	-8	1	blank	3993
082319	13:07:08	1	11	5.0.14.0	1	7	block1	pretrain	0	0	0	0	0	0	5000	7	C171.jpeg	-8	1	blank	3992
082319	13:07:08	1	11	5.0.14.0	1	8	block1	pretrain	0	0	0	0	0	0	5000	4	C22.jpeg	-8	1	blank	3993
082319	13:07:08	1	11	5.0.14.0	1	9	block1	pretrain	0	0	0	0	0	0	5000	10	C192.jpeg	-8	1	blank	3993
082319	13:07:08	1	11	5.0.14.0	1	10	block1	pretrain	0	0	0	0	0	0	5000	5	C61.jpeg	-8	1	blank	3992
082319	13:07:08	1	11	5.0.14.0	1	11	block1	pretrain	0	0	0	0	0	0	5000	13	C221.jpeg	-8	1	blank	3990
082319	13:07:08	1	11	5.0.14.0	1	12	block1	pretrain	0	0	0	0	0	0	5000	23	C381.jpeg	-8	1	blank	3993
082319	13:07:08	1	11	5.0.14.0	1	13	block1	pretrain	0	0	0	0	0	0	5000	11	C201.jpeg	-8	1	blank	3993
082319	13:07:08	1	11	5.0.14.0	1	14	block1	pretrain	0	0	0	0	0	0	5000	8	C172.jpeg	-8	1	blank	3993
082319	13:07:08	1	11	5.0.14.0	1	15	block1	pretrain	0	0	0	0	0	0	5000	20	C292.jpeg	-8	1	blank	3993
082319	13:07:08	1	11	5.0.14.0	1	16	block1	pretrain	0	0	0	0	0	0	5000	19	C291.jpeg	-8	1	blank	3993
082319	13:07:08	1	11	5.0.14.0	1	17	block1	pretrain	0	0	0	0	0	0	5000	22	C342.jpeg	-8	1	blank	3993
082319	13:07:08	1	11	5.0.14.0	1	18	block1	pretrain	0	0	0	0	0	0	5000	24	C382.jpeg	-8	1	blank	3993
082319	13:07:08	1	11	5.0.14.0	1	19	block1	pretrain	0	0	0	0	0	0	5000	3	C21.jpeg	-8	1	blank	3993
082319	13:07:08	1	11	5.0.14.0	1	20	block1	pretrain	0	0	0	0	0	0	5000	2	C12.jpeg	-8	1	blank	3993
082319	13:07:08	1	11	5.0.14.0	1	21	block1	pretrain	0	0	0	0	0	0	5000	21	C341.jpeg	-8	1	blank	3993
082319	13:07:08	1	11	5.0.14.0	1	22	block1	pretrain	0	0	0	0	0	0	5000	18	C282.jpeg	-8	1	blank	3993
082319	13:07:08	1	11	5.0.14.0	1	23	block1	pretrain	0	0	0	0	0	0	5000	6	C62.jpeg	-8	1	blank	3992
082319	13:07:08	1	11	5.0.14.0	1	24	block1	pretrain	0	0	0	0	0	0	5000	1	C11.jpeg	-8	1	blank	3993
082319	13:07:08	1	11	5.0.14.0	2	1	block2	pretrain	0	0	0	0	0	0	5000	23	C381.jpeg	-8	1	blank	3993
082319	13:07:08	1	11	5.0.14.0	2	2	block2	pretrain	0	0	0	0	0	0	5000	12	C202.jpeg	-8	1	blank	3993
082319	13:07:08	1	11	5.0.14.0	2	3	block2	pretrain	0	0	0	0	0	0	5000	17	C281.jpeg	-8	1	blank	3993
082319	13:07:08	1	11	5.0.14.0	2	4	block2	pretrain	0	0	0	0	0	0	5000	2	C12.jpeg	-8	1	blank	3993
082319	13:07:08	1	11	5.0.14.0	2	5	block2	pretrain	0	0	0	0	0	0	5000	5	C61.jpeg	-8	1	blank	3993
082319	13:07:08	1	11	5.0.14.0	2	6	block2	pretrain	0	0	0	0	0	0	5000	16	C232.jpeg	-8	1	blank	3993
082319	13:07:08	1	11	5.0.14.0	2	7	block2	pretrain	0	0	0	0	0	0	5000	13	C221.jpeg	-8	1	blank	3993
082319	13:07:08	1	11	5.0.14.0	2	8	block2	pretrain	0	0	0	0	0	0	5000	15	C231.jpeg	-8	1	blank	3993
082319	13:07:08	1	11	5.0.14.0	2	9	block2	pretrain	0	0	0	0	0	0	5000	22	C342.jpeg	-8	1	blank	3993
082319	13:07:08	1	11	5.0.14.0	2	10	block2	pretrain	0	0	0	0	0	0	5000	10	C192.jpeg	-8	1	blank	3991
082319	13:07:08	1	11	5.0.14.0	2	11	block2	pretrain	0	0	0	0	0	0	5000	8	C172.jpeg	-7	1	blank	3993
082319	13:07:08	1	11	5.0.14.0	2	12	block2	pretrain	0	0	0	0	0	0	5000	6	C62.jpeg	-8	1	blank	3993
082319	13:07:08	1	11	5.0.14.0	2	13	block2	pretrain	0	0	0	0	0	0	5000	11	C201.jpeg	-8	1	blank	3991
082319	13:07:08	1	11	5.0.14.0	2	14	block2	pretrain	0	0	0	0	0	0	5000	3	C21.jpeg	-8	1	blank	3993
082319	13:07:08	1	11	5.0.14.0	2	15	block2	pretrain	0	0	0	0	0	0	5000	7	C171.jpeg	-8	1	blank	3994
082319	13:07:08	1	11	5.0.14.0	2	16	block2	pretrain	0	0	0	0	0	0	5000	4	C22.jpeg	-8	1	blank	3993
082319	13:07:08	1	11	5.0.14.0	2	17	block2	pretrain	0	0	0	0	0	0	5000	1	C11.jpeg	-8	1	blank	3993
082319	13:07:08	1	11	5.0.14.0	2	18	block2	pretrain	0	0	0	0	0	0	5000	14	C222.jpeg	-8	1	blank	3993
082319	13:07:08	1	11	5.0.14.0	2	19	block2	pretrain	0	0	0	0	0	0	5000	19	C291.jpeg	-8	1	blank	3993
082319	13:07:08	1	11	5.0.14.0	2	20	block2	pretrain	0	0	0	0	0	0	5000	18	C282.jpeg	-8	1	blank	3993
082319	13:07:08	1	11	5.0.14.0	2	21	block2	pretrain	0	0	0	0	0	0	5000	21	C341.jpeg	-8	1	blank	3993
082319	13:07:08	1	11	5.0.14.0	2	22	block2	pretrain	0	0	0	0	0	0	5000	9	C191.jpeg	-8	1	blank	3993
082319	13:07:08	1	11	5.0.14.0	2	23	block2	pretrain	0	0	0	0	0	0	5000	24	C382.jpeg	-8	1	blank	3992
082319	13:07:08	1	11	5.0.14.0	2	24	block2	pretrain	0	0	0	0	0	0	5000	20	C292.jpeg	-8	1	blank	3993
082319	13:07:08	1	11	5.0.14.0	3	1	block3	pretrainWithFeedback	0	0	0	0	magdalene	1	99053	15	C231Q.jpeg	34	1	correct!	99099
082319	13:07:08	1	11	5.0.14.0	3	2	block3	pretrainWithFeedback	0	0	0	0	hannah	0	5253	7	C171Q.jpeg	0	7	Wrong! It's Steph	5278
082319	13:07:08	1	11	5.0.14.0	3	3	block3	pretrainWithFeedback	0	0	0	0		0	80	10	C192Q.jpeg	0	10	Wrong! It's Bill	109
082319	13:07:08	1	11	5.0.14.0	3	4	block3	pretrainWithFeedback	0	0	0	0	hannah	0	9817	13	C221Q.jpeg	0	13	Wrong! It's Doreen	9846
082319	13:07:08	1	11	5.0.14.0	3	5	block3	pretrainWithFeedback	0	0	0	0	timothy	0	8273	18	C282Q.jpeg	0	18	Wrong! It's Tobias	8300
082319	13:07:08	1	11	5.0.14.0	3	6	block3	pretrainWithFeedback	0	0	0	0	bill	0	4332	8	C172Q.jpeg	0	8	Wrong! It's Harold	4363
082319	13:07:08	1	11	5.0.14.0	3	7	block3	pretrainWithFeedback	0	0	0	0	hannah	0	7480	1	C11Q.jpeg	3	1	Wrong! It's Jolene	7512
082319	13:07:08	1	11	5.0.14.0	3	8	block3	pretrainWithFeedback	0	0	0	0	felix	1	3883	12	C202Q.jpeg	0	1	correct!	3910
082319	13:07:08	1	11	5.0.14.0	3	9	block3	pretrainWithFeedback	0	0	0	0	rachel	0	3204	23	C381Q.jpeg	3	23	Wrong! It's Angela	3244
082319	13:07:08	1	11	5.0.14.0	3	10	block3	pretrainWithFeedback	0	0	0	0	jeffrey	0	3222	20	C292Q.jpeg	3	20	Wrong! It's Solomon	3260
082319	13:07:08	1	11	5.0.14.0	3	11	block3	pretrainWithFeedback	0	0	0	0	hannah	0	4302	5	C61Q.jpeg	4	5	Wrong! It's Jennifer	4328
082319	13:07:08	1	11	5.0.14.0	3	12	block3	pretrainWithFeedback	0	0	0	0	hannah	1	4659	9	C191Q.jpeg	0	1	correct!	4678
082319	13:07:08	1	11	5.0.14.0	3	13	block3	pretrainWithFeedback	0	0	0	0	sharon	0	11396	17	C281Q.jpeg	3	17	Wrong! It's Shannon	11432
082319	13:07:08	1	11	5.0.14.0	3	14	block3	pretrainWithFeedback	0	0	0	0	jeffrey	1	4142	2	C12Q.jpeg	3	1	correct!	4179
082319	13:07:08	1	11	5.0.14.0	3	15	block3	pretrainWithFeedback	0	0	0	0	beth	1	16877	3	C21Q.jpeg	0	1	correct!	16904
082319	13:07:08	1	11	5.0.14.0	3	16	block3	pretrainWithFeedback	0	0	0	0	harold	0	8356	16	C232Q.jpeg	0	16	Wrong! It's Chris	8396
082319	13:07:08	1	11	5.0.14.0	3	17	block3	pretrainWithFeedback	0	0	0	0	henry	0	5604	6	C62Q.jpeg	-2	6	Wrong! It's Bob	5633
082319	13:07:08	1	11	5.0.14.0	3	18	block3	pretrainWithFeedback	0	0	0	0	dave	1	3579	24	C382Q.jpeg	0	1	correct!	3614
082319	13:07:08	1	11	5.0.14.0	3	19	block3	pretrainWithFeedback	0	0	0	0	vera	1	2637	19	C291Q.jpeg	-1	1	correct!	2662
082319	13:07:08	1	11	5.0.14.0	3	20	block3	pretrainWithFeedback	0	0	0	0	henry	0	7577	22	C342Q.jpeg	0	22	Wrong! It's Dennis	7615
082319	13:07:08	1	11	5.0.14.0	3	21	block3	pretrainWithFeedback	0	0	0	0	jim	1	2383	4	C22Q.jpeg	0	1	correct!	2409
082319	13:07:08	1	11	5.0.14.0	3	22	block3	pretrainWithFeedback	0	0	0	0	angela	0	12925	21	C341Q.jpeg	3	21	Wrong! It's Vivian	12971
082319	13:07:08	1	11	5.0.14.0	3	23	block3	pretrainWithFeedback	0	0	0	0	chris	0	5212	14	C222Q.jpeg	-1	14	Wrong! It's Simon	5245
082319	13:07:08	1	11	5.0.14.0	3	24	block3	pretrainWithFeedback	0	0	0	0	rachel	0	5726	11	C201Q.jpeg	4	11	Wrong! It's Camille	5765
082319	13:07:08	1	11	5.0.14.0	4	1	block4	pretrainWithFeedback	0	0	0	0	rachel	0	10060	7	C171Q.jpeg	3	7	Wrong! It's Steph	10101
082319	13:07:08	1	11	5.0.14.0	4	2	block4	pretrainWithFeedback	0	0	0	0	shannon	0	13788	13	C221Q.jpeg	0	13	Wrong! It's Doreen	13815
082319	13:07:08	1	11	5.0.14.0	4	3	block4	pretrainWithFeedback	0	0	0	0	bill	1	2819	10	C192Q.jpeg	3	1	correct!	2843
082319	13:07:08	1	11	5.0.14.0	4	4	block4	pretrainWithFeedback	0	0	0	0	shannon	1	2470	17	C281Q.jpeg	3	1	correct!	2493
082319	13:07:08	1	11	5.0.14.0	4	5	block4	pretrainWithFeedback	0	0	0	0	vivian	1	6179	21	C341Q.jpeg	0	1	correct!	6220
082319	13:07:08	1	11	5.0.14.0	4	6	block4	pretrainWithFeedback	0	0	0	0	soloman	0	3858	20	C292Q.jpeg	3	20	Wrong! It's Solomon	3896
082319	13:07:08	1	11	5.0.14.0	4	7	block4	pretrainWithFeedback	0	0	0	0	jennifer	1	3236	5	C61Q.jpeg	0	1	correct!	3263
082319	13:07:08	1	11	5.0.14.0	4	8	block4	pretrainWithFeedback	0	0	0	0	vera	1	2097	19	C291Q.jpeg	-1	1	correct!	2127
082319	13:07:08	1	11	5.0.14.0	4	9	block4	pretrainWithFeedback	0	0	0	0	rachel	0	5691	3	C21Q.jpeg	0	3	Wrong! It's Beth	5718
082319	13:07:08	1	11	5.0.14.0	4	10	block4	pretrainWithFeedback	0	0	0	0	jeffrey	1	4492	2	C12Q.jpeg	-1	1	correct!	4512
082319	13:07:08	1	11	5.0.14.0	4	11	block4	pretrainWithFeedback	0	0	0	0	jim	1	2844	4	C22Q.jpeg	2	1	correct!	2879
082319	13:07:08	1	11	5.0.14.0	4	12	block4	pretrainWithFeedback	0	0	0	0	hannah	1	8291	9	C191Q.jpeg	-1	1	correct!	8333
082319	13:07:08	1	11	5.0.14.0	4	13	block4	pretrainWithFeedback	0	0	0	0	rachel	0	6629	15	C231Q.jpeg	-1	15	Wrong! It's Magdalene	6665
082319	13:07:08	1	11	5.0.14.0	4	14	block4	pretrainWithFeedback	0	0	0	0	bob	1	2117	6	C62Q.jpeg	-2	1	correct!	2147
082319	13:07:08	1	11	5.0.14.0	4	15	block4	pretrainWithFeedback	0	0	0	0	rachel	0	4957	1	C11Q.jpeg	0	1	Wrong! It's Jolene	4978
082319	13:07:08	1	11	5.0.14.0	4	16	block4	pretrainWithFeedback	0	0	0	0	simon	1	2228	14	C222Q.jpeg	0	1	correct!	2264
082319	13:07:08	1	11	5.0.14.0	4	17	block4	pretrainWithFeedback	0	0	0	0	camille	1	10951	11	C201Q.jpeg	0	1	correct!	10986
082319	13:07:08	1	11	5.0.14.0	4	18	block4	pretrainWithFeedback	0	0	0	0	dave	1	2613	24	C382Q.jpeg	-1	1	correct!	2643
082319	13:07:08	1	11	5.0.14.0	4	19	block4	pretrainWithFeedback	0	0	0	0	felix	1	2365	12	C202Q.jpeg	0	1	correct!	2398
082319	13:07:08	1	11	5.0.14.0	4	20	block4	pretrainWithFeedback	0	0	0	0	simon	0	9243	18	C282Q.jpeg	0	18	Wrong! It's Tobias	9282
082319	13:07:08	1	11	5.0.14.0	4	21	block4	pretrainWithFeedback	0	0	0	0	dennis	0	4872	8	C172Q.jpeg	-3	8	Wrong! It's Harold	4896
082319	13:07:08	1	11	5.0.14.0	4	22	block4	pretrainWithFeedback	0	0	0	0	dennis	0	1997	16	C232Q.jpeg	3	16	Wrong! It's Chris	2026
082319	13:07:08	1	11	5.0.14.0	4	23	block4	pretrainWithFeedback	0	0	0	0	angela	1	2762	23	C381Q.jpeg	0	1	correct!	2796
082319	13:07:08	1	11	5.0.14.0	4	24	block4	pretrainWithFeedback	0	0	0	0	dennis	1	2065	22	C342Q.jpeg	0	1	correct!	2094
082719	15:03:34	1	12	5.0.14.0	1	1	block1	pretrain	0	0	0	0	0	0	5000	22	C342.jpeg	33	1	blank	3991
082719	15:03:34	1	12	5.0.14.0	1	2	block1	pretrain	0	0	0	0	0	0	5000	16	C232.jpeg	-7	1	blank	3991
082719	15:03:34	1	12	5.0.14.0	1	3	block1	pretrain	0	0	0	0	0	0	5000	13	C221.jpeg	-8	1	blank	3993
082719	15:03:34	1	12	5.0.14.0	1	4	block1	pretrain	0	0	0	0	0	0	5000	24	C382.jpeg	-8	1	blank	3993
082719	15:03:34	1	12	5.0.14.0	1	5	block1	pretrain	0	0	0	0	0	0	5000	9	C191.jpeg	-8	1	blank	3993
082719	15:03:34	1	12	5.0.14.0	1	6	block1	pretrain	0	0	0	0	0	0	5000	7	C171.jpeg	-8	1	blank	3993
082719	15:03:34	1	12	5.0.14.0	1	7	block1	pretrain	0	0	0	0	0	0	5000	20	C292.jpeg	-8	1	blank	3993
082719	15:03:34	1	12	5.0.14.0	1	8	block1	pretrain	0	0	0	0	0	0	5000	15	C231.jpeg	-8	1	blank	3993
082719	15:03:34	1	12	5.0.14.0	1	9	block1	pretrain	0	0	0	0	0	0	5000	19	C291.jpeg	-8	1	blank	3993
082719	15:03:34	1	12	5.0.14.0	1	10	block1	pretrain	0	0	0	0	0	0	5000	8	C172.jpeg	-8	1	blank	3993
082719	15:03:34	1	12	5.0.14.0	1	11	block1	pretrain	0	0	0	0	0	0	5000	18	C282.jpeg	-8	1	blank	3993
082719	15:03:34	1	12	5.0.14.0	1	12	block1	pretrain	0	0	0	0	0	0	5000	14	C222.jpeg	-8	1	blank	3993
082719	15:03:34	1	12	5.0.14.0	1	13	block1	pretrain	0	0	0	0	0	0	5000	11	C201.jpeg	-8	1	blank	3992
082719	15:03:34	1	12	5.0.14.0	1	14	block1	pretrain	0	0	0	0	0	0	5000	17	C281.jpeg	-8	1	blank	3993
082719	15:03:34	1	12	5.0.14.0	1	15	block1	pretrain	0	0	0	0	0	0	5000	2	C12.jpeg	-8	1	blank	3993
082719	15:03:34	1	12	5.0.14.0	1	16	block1	pretrain	0	0	0	0	0	0	5000	21	C341.jpeg	-8	1	blank	3993
082719	15:03:34	1	12	5.0.14.0	1	17	block1	pretrain	0	0	0	0	0	0	5000	23	C381.jpeg	-8	1	blank	3993
082719	15:03:34	1	12	5.0.14.0	1	18	block1	pretrain	0	0	0	0	0	0	5000	4	C22.jpeg	-8	1	blank	3993
082719	15:03:34	1	12	5.0.14.0	1	19	block1	pretrain	0	0	0	0	0	0	5000	1	C11.jpeg	-8	1	blank	3993
082719	15:03:34	1	12	5.0.14.0	1	20	block1	pretrain	0	0	0	0	0	0	5000	10	C192.jpeg	-8	1	blank	3993
082719	15:03:34	1	12	5.0.14.0	1	21	block1	pretrain	0	0	0	0	0	0	5000	6	C62.jpeg	-8	1	blank	3993
082719	15:03:34	1	12	5.0.14.0	1	22	block1	pretrain	0	0	0	0	0	0	5000	3	C21.jpeg	-8	1	blank	3993
082719	15:03:34	1	12	5.0.14.0	1	23	block1	pretrain	0	0	0	0	0	0	5000	5	C61.jpeg	-8	1	blank	3993
082719	15:03:34	1	12	5.0.14.0	1	24	block1	pretrain	0	0	0	0	0	0	5000	12	C202.jpeg	-8	1	blank	3993
082719	15:03:34	1	12	5.0.14.0	2	1	block2	pretrain	0	0	0	0	0	0	5000	3	C21.jpeg	-7	1	blank	3993
082719	15:03:34	1	12	5.0.14.0	2	2	block2	pretrain	0	0	0	0	0	0	5000	2	C12.jpeg	-8	1	blank	3993
082719	15:03:34	1	12	5.0.14.0	2	3	block2	pretrain	0	0	0	0	0	0	5000	6	C62.jpeg	-8	1	blank	3993
082719	15:03:34	1	12	5.0.14.0	2	4	block2	pretrain	0	0	0	0	0	0	5000	10	C192.jpeg	-8	1	blank	3993
082719	15:03:34	1	12	5.0.14.0	2	5	block2	pretrain	0	0	0	0	0	0	5000	19	C291.jpeg	-8	1	blank	3992
082719	15:03:34	1	12	5.0.14.0	2	6	block2	pretrain	0	0	0	0	0	0	5000	5	C61.jpeg	-8	1	blank	3993
082719	15:03:34	1	12	5.0.14.0	2	7	block2	pretrain	0	0	0	0	0	0	5000	17	C281.jpeg	-8	1	blank	3993
082719	15:03:34	1	12	5.0.14.0	2	8	block2	pretrain	0	0	0	0	0	0	5000	24	C382.jpeg	-8	1	blank	3993
082719	15:03:34	1	12	5.0.14.0	2	9	block2	pretrain	0	0	0	0	0	0	5000	12	C202.jpeg	-8	1	blank	3993
082719	15:03:34	1	12	5.0.14.0	2	10	block2	pretrain	0	0	0	0	0	0	5000	16	C232.jpeg	-8	1	blank	3993
082719	15:03:34	1	12	5.0.14.0	2	11	block2	pretrain	0	0	0	0	0	0	5000	23	C381.jpeg	-8	1	blank	3993
082719	15:03:34	1	12	5.0.14.0	2	12	block2	pretrain	0	0	0	0	0	0	5000	18	C282.jpeg	-8	1	blank	3993
082719	15:03:34	1	12	5.0.14.0	2	13	block2	pretrain	0	0	0	0	0	0	5000	13	C221.jpeg	-8	1	blank	3993
082719	15:03:34	1	12	5.0.14.0	2	14	block2	pretrain	0	0	0	0	0	0	5000	1	C11.jpeg	-8	1	blank	3993
082719	15:03:34	1	12	5.0.14.0	2	15	block2	pretrain	0	0	0	0	0	0	5000	4	C22.jpeg	-8	1	blank	3993
082719	15:03:34	1	12	5.0.14.0	2	16	block2	pretrain	0	0	0	0	0	0	5000	14	C222.jpeg	-8	1	blank	3993
082719	15:03:34	1	12	5.0.14.0	2	17	block2	pretrain	0	0	0	0	0	0	5000	21	C341.jpeg	-8	1	blank	3993
082719	15:03:34	1	12	5.0.14.0	2	18	block2	pretrain	0	0	0	0	0	0	5000	15	C231.jpeg	-8	1	blank	3993
082719	15:03:34	1	12	5.0.14.0	2	19	block2	pretrain	0	0	0	0	0	0	5000	11	C201.jpeg	-8	1	blank	3993
082719	15:03:34	1	12	5.0.14.0	2	20	block2	pretrain	0	0	0	0	0	0	5000	20	C292.jpeg	-8	1	blank	3993
082719	15:03:34	1	12	5.0.14.0	2	21	block2	pretrain	0	0	0	0	0	0	5000	9	C191.jpeg	-8	1	blank	3993
082719	15:03:34	1	12	5.0.14.0	2	22	block2	pretrain	0	0	0	0	0	0	5000	22	C342.jpeg	-8	1	blank	3993
082719	15:03:34	1	12	5.0.14.0	2	23	block2	pretrain	0	0	0	0	0	0	5000	7	C171.jpeg	-8	1	blank	3993
082719	15:03:34	1	12	5.0.14.0	2	24	block2	pretrain	0	0	0	0	0	0	5000	8	C172.jpeg	-8	1	blank	3993
082719	15:03:34	1	12	5.0.14.0	3	1	block3	pretrainWithFeedback	0	0	0	0	Harold	1	5212	8	C172Q.jpeg	34	1	correct!	5265
082719	15:03:34	1	12	5.0.14.0	3	2	block3	pretrainWithFeedback	0	0	0	0	Bill	1	5994	10	C192Q.jpeg	-1	1	correct!	6032
082719	15:03:34	1	12	5.0.14.0	3	3	block3	pretrainWithFeedback	0	0	0	0	Camille	0	21299	3	C21Q.jpeg	-1	3	Wrong! It's Beth	21320
082719	15:03:34	1	12	5.0.14.0	3	4	block3	pretrainWithFeedback	0	0	0	0	Camille	0	8187	5	C61Q.jpeg	4	5	Wrong! It's Jennifer	8213
082719	15:03:34	1	12	5.0.14.0	3	5	block3	pretrainWithFeedback	0	0	0	0	Magdalene	1	3486	15	C231Q.jpeg	4	1	correct!	3527
082719	15:03:34	1	12	5.0.14.0	3	6	block3	pretrainWithFeedback	0	0	0	0	Simon	0	5094	18	C282Q.jpeg	3	18	Wrong! It's Tobias	5129
082719	15:03:34	1	12	5.0.14.0	3	7	block3	pretrainWithFeedback	0	0	0	0	Tobias	0	7028	20	C292Q.jpeg	0	20	Wrong! It's Solomon	7065
082719	15:03:34	1	12	5.0.14.0	3	8	block3	pretrainWithFeedback	0	0	0	0	Chris	0	3973	14	C222Q.jpeg	1	14	Wrong! It's Simon	3996
082719	15:03:34	1	12	5.0.14.0	3	9	block3	pretrainWithFeedback	0	0	0	0	Jeffrey	1	3566	2	C12Q.jpeg	0	1	correct!	3594
082719	15:03:34	1	12	5.0.14.0	3	10	block3	pretrainWithFeedback	0	0	0	0	Chris	0	4492	22	C342Q.jpeg	0	22	Wrong! It's Dennis	4512
082719	15:03:34	1	12	5.0.14.0	3	11	block3	pretrainWithFeedback	0	0	0	0	Beth	0	14619	11	C201Q.jpeg	0	11	Wrong! It's Camille	14652
082719	15:03:34	1	12	5.0.14.0	3	12	block3	pretrainWithFeedback	0	0	0	0	Shannon	1	2550	17	C281Q.jpeg	3	1	correct!	2575
082719	15:03:34	1	12	5.0.14.0	3	13	block3	pretrainWithFeedback	0	0	0	0	Bob	1	4080	6	C62Q.jpeg	0	1	correct!	4113
082719	15:03:34	1	12	5.0.14.0	3	14	block3	pretrainWithFeedback	0	0	0	0	Bill	0	6848	4	C22Q.jpeg	-1	4	Wrong! It's Jim	6880
082719	15:03:34	1	12	5.0.14.0	3	15	block3	pretrainWithFeedback	0	0	0	0	Jennifer	0	16076	23	C381Q.jpeg	0	23	Wrong! It's Angela	16115
082719	15:03:34	1	12	5.0.14.0	3	16	block3	pretrainWithFeedback	0	0	0	0	Felix	1	2698	12	C202Q.jpeg	3	1	correct!	2726
082719	15:03:34	1	12	5.0.14.0	3	17	block3	pretrainWithFeedback	0	0	0	0	Chris	1	2930	16	C232Q.jpeg	0	1	correct!	2963
082719	15:03:34	1	12	5.0.14.0	3	18	block3	pretrainWithFeedback	0	0	0	0	Dave	1	2110	24	C382Q.jpeg	0	1	correct!	2146
082719	15:03:34	1	12	5.0.14.0	3	19	block3	pretrainWithFeedback	0	0	0	0	Vivian	1	3727	21	C341Q.jpeg	0	1	correct!	3763
082719	15:03:34	1	12	5.0.14.0	3	20	block3	pretrainWithFeedback	0	0	0	0	Vera	1	3816	19	C291Q.jpeg	-1	1	correct!	3847
082719	15:03:34	1	12	5.0.14.0	3	21	block3	pretrainWithFeedback	0	0	0	0	Shannon	0	25105	13	C221Q.jpeg	0	13	Wrong! It's Doreen	25140
082719	15:03:34	1	12	5.0.14.0	3	22	block3	pretrainWithFeedback	0	0	0	0	Jolene	1	6346	1	C11Q.jpeg	10	1	correct!	6376
082719	15:03:34	1	12	5.0.14.0	3	23	block3	pretrainWithFeedback	0	0	0	0	Beth	0	7139	7	C171Q.jpeg	0	7	Wrong! It's Steph	7162
082719	15:03:34	1	12	5.0.14.0	3	24	block3	pretrainWithFeedback	0	0	0	0	Vivian	0	6181	9	C191Q.jpeg	3	9	Wrong! It's Hannah	6212
082719	15:03:34	1	12	5.0.14.0	4	1	block4	pretrainWithFeedback	0	0	0	0	Magdalene	1	4926	15	C231Q.jpeg	2	1	correct!	4963
082719	15:03:34	1	12	5.0.14.0	4	2	block4	pretrainWithFeedback	0	0	0	0	Jennifer	0	8056	11	C201Q.jpeg	0	11	Wrong! It's Camille	8082
082719	15:03:34	1	12	5.0.14.0	4	3	block4	pretrainWithFeedback	0	0	0	0	Jolene	1	5066	1	C11Q.jpeg	0	1	correct!	5096
082719	15:03:34	1	12	5.0.14.0	4	4	block4	pretrainWithFeedback	0	0	0	0	Angela	1	4262	23	C381Q.jpeg	0	1	correct!	4296
082719	15:03:34	1	12	5.0.14.0	4	5	block4	pretrainWithFeedback	0	0	0	0	Steph	1	3035	7	C171Q.jpeg	0	1	correct!	3059
082719	15:03:34	1	12	5.0.14.0	4	6	block4	pretrainWithFeedback	0	0	0	0	Chris	1	3550	16	C232Q.jpeg	3	1	correct!	3576
082719	15:03:34	1	12	5.0.14.0	4	7	block4	pretrainWithFeedback	0	0	0	0	Bob	1	2014	6	C62Q.jpeg	0	1	correct!	2045
082719	15:03:34	1	12	5.0.14.0	4	8	block4	pretrainWithFeedback	0	0	0	0	Vivian	0	2555	9	C191Q.jpeg	0	9	Wrong! It's Hannah	2592
082719	15:03:34	1	12	5.0.14.0	4	9	block4	pretrainWithFeedback	0	0	0	0	Chris	0	5708	14	C222Q.jpeg	3	14	Wrong! It's Simon	5747
082719	15:03:34	1	12	5.0.14.0	4	10	block4	pretrainWithFeedback	0	0	0	0	Jennifer	1	5651	5	C61Q.jpeg	11	1	correct!	5681
082719	15:03:34	1	12	5.0.14.0	4	11	block4	pretrainWithFeedback	0	0	0	0	Doreen	1	2415	13	C221Q.jpeg	0	1	correct!	2443
082719	15:03:34	1	12	5.0.14.0	4	12	block4	pretrainWithFeedback	0	0	0	0	Jeffrey	1	3500	2	C12Q.jpeg	4	1	correct!	3525
082719	15:03:34	1	12	5.0.14.0	4	13	block4	pretrainWithFeedback	0	0	0	0	Bill	0	3224	18	C282Q.jpeg	4	18	Wrong! It's Tobias	3262
082719	15:03:34	1	12	5.0.14.0	4	14	block4	pretrainWithFeedback	0	0	0	0	Dave	1	2011	24	C382Q.jpeg	0	1	correct!	2046
082719	15:03:34	1	12	5.0.14.0	4	15	block4	pretrainWithFeedback	0	0	0	0	Vera	1	3169	19	C291Q.jpeg	-2	1	correct!	3196
082719	15:03:34	1	12	5.0.14.0	4	16	block4	pretrainWithFeedback	0	0	0	0	Chris	0	3384	8	C172Q.jpeg	0	8	Wrong! It's Harold	3412
082719	15:03:34	1	12	5.0.14.0	4	17	block4	pretrainWithFeedback	0	0	0	0	Hannah	0	6419	3	C21Q.jpeg	0	3	Wrong! It's Beth	6442
082719	15:03:34	1	12	5.0.14.0	4	18	block4	pretrainWithFeedback	0	0	0	0	Bill	1	2472	10	C192Q.jpeg	3	1	correct!	2510
082719	15:03:34	1	12	5.0.14.0	4	19	block4	pretrainWithFeedback	0	0	0	0	Hannah	0	5252	21	C341Q.jpeg	0	21	Wrong! It's Vivian	5279
082719	15:03:34	1	12	5.0.14.0	4	20	block4	pretrainWithFeedback	0	0	0	0	Chris	0	6879	22	C342Q.jpeg	0	22	Wrong! It's Dennis	6913
082719	15:03:34	1	12	5.0.14.0	4	21	block4	pretrainWithFeedback	0	0	0	0	Shannon	1	3016	17	C281Q.jpeg	3	1	correct!	3043
082719	15:03:34	1	12	5.0.14.0	4	22	block4	pretrainWithFeedback	0	0	0	0	Felix	1	2118	12	C202Q.jpeg	0	1	correct!	2145
082719	15:03:34	1	12	5.0.14.0	4	23	block4	pretrainWithFeedback	0	0	0	0	Solomon	1	2887	20	C292Q.jpeg	0	1	correct!	2913
082719	15:03:34	1	12	5.0.14.0	4	24	block4	pretrainWithFeedback	0	0	0	0	Bill	0	3196	4	C22Q.jpeg	0	4	Wrong! It's Jim	3228
082819	09:05:17	1	13	5.0.14.0	1	1	block1	pretrain	0	0	0	0	0	0	5000	3	C21.jpeg	-2	1	blank	3991
082819	09:05:17	1	13	5.0.14.0	1	2	block1	pretrain	0	0	0	0	0	0	5000	6	C62.jpeg	-7	1	blank	3991
082819	09:05:17	1	13	5.0.14.0	1	3	block1	pretrain	0	0	0	0	0	0	5000	1	C11.jpeg	-8	1	blank	3993
082819	09:05:17	1	13	5.0.14.0	1	4	block1	pretrain	0	0	0	0	0	0	5000	22	C342.jpeg	-8	1	blank	3993
082819	09:05:17	1	13	5.0.14.0	1	5	block1	pretrain	0	0	0	0	0	0	5000	11	C201.jpeg	-8	1	blank	3993
082819	09:05:17	1	13	5.0.14.0	1	6	block1	pretrain	0	0	0	0	0	0	5000	5	C61.jpeg	-8	1	blank	3993
082819	09:05:17	1	13	5.0.14.0	1	7	block1	pretrain	0	0	0	0	0	0	5000	18	C282.jpeg	-8	1	blank	3993
082819	09:05:17	1	13	5.0.14.0	1	8	block1	pretrain	0	0	0	0	0	0	5000	9	C191.jpeg	-8	1	blank	3993
082819	09:05:17	1	13	5.0.14.0	1	9	block1	pretrain	0	0	0	0	0	0	5000	4	C22.jpeg	-8	1	blank	3993
082819	09:05:17	1	13	5.0.14.0	1	10	block1	pretrain	0	0	0	0	0	0	5000	14	C222.jpeg	-8	1	blank	3993
082819	09:05:17	1	13	5.0.14.0	1	11	block1	pretrain	0	0	0	0	0	0	5000	13	C221.jpeg	-8	1	blank	3993
082819	09:05:17	1	13	5.0.14.0	1	12	block1	pretrain	0	0	0	0	0	0	5000	10	C192.jpeg	-8	1	blank	3993
082819	09:05:17	1	13	5.0.14.0	1	13	block1	pretrain	0	0	0	0	0	0	5000	17	C281.jpeg	-8	1	blank	3993
082819	09:05:17	1	13	5.0.14.0	1	14	block1	pretrain	0	0	0	0	0	0	5000	21	C341.jpeg	-8	1	blank	3993
082819	09:05:17	1	13	5.0.14.0	1	15	block1	pretrain	0	0	0	0	0	0	5000	12	C202.jpeg	-8	1	blank	3993
082819	09:05:17	1	13	5.0.14.0	1	16	block1	pretrain	0	0	0	0	0	0	5000	7	C171.jpeg	-8	1	blank	3993
082819	09:05:17	1	13	5.0.14.0	1	17	block1	pretrain	0	0	0	0	0	0	5000	16	C232.jpeg	-8	1	blank	3993
082819	09:05:17	1	13	5.0.14.0	1	18	block1	pretrain	0	0	0	0	0	0	5000	24	C382.jpeg	-8	1	blank	3993
082819	09:05:17	1	13	5.0.14.0	1	19	block1	pretrain	0	0	0	0	0	0	5000	2	C12.jpeg	-8	1	blank	3993
082819	09:05:17	1	13	5.0.14.0	1	20	block1	pretrain	0	0	0	0	0	0	5000	8	C172.jpeg	-8	1	blank	3993
082819	09:05:17	1	13	5.0.14.0	1	21	block1	pretrain	0	0	0	0	0	0	5000	20	C292.jpeg	-8	1	blank	3993
082819	09:05:17	1	13	5.0.14.0	1	22	block1	pretrain	0	0	0	0	0	0	5000	23	C381.jpeg	-8	1	blank	3993
082819	09:05:17	1	13	5.0.14.0	1	23	block1	pretrain	0	0	0	0	0	0	5000	15	C231.jpeg	-8	1	blank	3993
082819	09:05:17	1	13	5.0.14.0	1	24	block1	pretrain	0	0	0	0	0	0	5000	19	C291.jpeg	-8	1	blank	3993
082819	09:05:17	1	13	5.0.14.0	2	1	block2	pretrain	0	0	0	0	0	0	5000	20	C292.jpeg	-7	1	blank	3993
082819	09:05:17	1	13	5.0.14.0	2	2	block2	pretrain	0	0	0	0	0	0	5000	12	C202.jpeg	-8	1	blank	3993
082819	09:05:17	1	13	5.0.14.0	2	3	block2	pretrain	0	0	0	0	0	0	5000	17	C281.jpeg	-8	1	blank	3993
082819	09:05:17	1	13	5.0.14.0	2	4	block2	pretrain	0	0	0	0	0	0	5000	7	C171.jpeg	-8	1	blank	3993
082819	09:05:17	1	13	5.0.14.0	2	5	block2	pretrain	0	0	0	0	0	0	5000	22	C342.jpeg	-8	1	blank	3993
082819	09:05:17	1	13	5.0.14.0	2	6	block2	pretrain	0	0	0	0	0	0	5000	24	C382.jpeg	-8	1	blank	3993
082819	09:05:17	1	13	5.0.14.0	2	7	block2	pretrain	0	0	0	0	0	0	5000	10	C192.jpeg	-8	1	blank	3999
082819	09:05:17	1	13	5.0.14.0	2	8	block2	pretrain	0	0	0	0	0	0	5000	19	C291.jpeg	-8	1	blank	4001
082819	09:05:17	1	13	5.0.14.0	2	9	block2	pretrain	0	0	0	0	0	0	5000	15	C231.jpeg	-6	1	blank	3996
082819	09:05:17	1	13	5.0.14.0	2	10	block2	pretrain	0	0	0	0	0	0	5000	3	C21.jpeg	-5	1	blank	3991
082819	09:05:17	1	13	5.0.14.0	2	11	block2	pretrain	0	0	0	0	0	0	5000	6	C62.jpeg	-7	1	blank	4004
082819	09:05:17	1	13	5.0.14.0	2	12	block2	pretrain	0	0	0	0	0	0	5000	11	C201.jpeg	-7	1	blank	3991
082819	09:05:17	1	13	5.0.14.0	2	13	block2	pretrain	0	0	0	0	0	0	5000	18	C282.jpeg	-8	1	blank	3999
082819	09:05:17	1	13	5.0.14.0	2	14	block2	pretrain	0	0	0	0	0	0	5000	4	C22.jpeg	-7	1	blank	3991
082819	09:05:17	1	13	5.0.14.0	2	15	block2	pretrain	0	0	0	0	0	0	5000	23	C381.jpeg	-4	1	blank	3991
082819	09:05:17	1	13	5.0.14.0	2	16	block2	pretrain	0	0	0	0	0	0	5000	21	C341.jpeg	-8	1	blank	3991
082819	09:05:17	1	13	5.0.14.0	2	17	block2	pretrain	0	0	0	0	0	0	5000	8	C172.jpeg	-8	1	blank	3991
082819	09:05:17	1	13	5.0.14.0	2	18	block2	pretrain	0	0	0	0	0	0	5000	13	C221.jpeg	-6	1	blank	3993
082819	09:05:17	1	13	5.0.14.0	2	19	block2	pretrain	0	0	0	0	0	0	5000	2	C12.jpeg	-8	1	blank	3991
082819	09:05:17	1	13	5.0.14.0	2	20	block2	pretrain	0	0	0	0	0	0	5000	16	C232.jpeg	-8	1	blank	3994
082819	09:05:17	1	13	5.0.14.0	2	21	block2	pretrain	0	0	0	0	0	0	5000	5	C61.jpeg	-8	1	blank	3991
082819	09:05:17	1	13	5.0.14.0	2	22	block2	pretrain	0	0	0	0	0	0	5000	1	C11.jpeg	-8	1	blank	3999
082819	09:05:17	1	13	5.0.14.0	2	23	block2	pretrain	0	0	0	0	0	0	5000	9	C191.jpeg	-8	1	blank	3987
082819	09:05:17	1	13	5.0.14.0	2	24	block2	pretrain	0	0	0	0	0	0	5000	14	C222.jpeg	-8	1	blank	3991
082819	09:05:17	1	13	5.0.14.0	3	1	block3	pretrainWithFeedback	0	0	0	0	Dave	1	5567	24	C382Q.jpeg	34	1	correct!	5612
082819	09:05:17	1	13	5.0.14.0	3	2	block3	pretrainWithFeedback	0	0	0	0	Jennifer	0	29100	7	C171Q.jpeg	0	7	Wrong! It's Steph	29124
082819	09:05:17	1	13	5.0.14.0	3	3	block3	pretrainWithFeedback	0	0	0	0	Simon	1	2650	14	C222Q.jpeg	0	1	correct!	2679
082819	09:05:17	1	13	5.0.14.0	3	4	block3	pretrainWithFeedback	0	0	0	0	Hannah	1	2332	9	C191Q.jpeg	0	1	correct!	2365
082819	09:05:17	1	13	5.0.14.0	3	5	block3	pretrainWithFeedback	0	0	0	0	Jolene	1	3872	1	C11Q.jpeg	-1	1	correct!	3896
082819	09:05:17	1	13	5.0.14.0	3	6	block3	pretrainWithFeedback	0	0	0	0	Jim	1	3631	4	C22Q.jpeg	0	1	correct!	3661
082819	09:05:17	1	13	5.0.14.0	3	7	block3	pretrainWithFeedback	0	0	0	0	Bill	1	4338	10	C192Q.jpeg	0	1	correct!	4362
082819	09:05:17	1	13	5.0.14.0	3	8	block3	pretrainWithFeedback	0	0	0	0	Chris	1	3096	16	C232Q.jpeg	0	1	correct!	3126
082819	09:05:17	1	13	5.0.14.0	3	9	block3	pretrainWithFeedback	0	0	0	0	Dave	0	11351	12	C202Q.jpeg	2	12	Wrong! It's Felix	11382
082819	09:05:17	1	13	5.0.14.0	3	10	block3	pretrainWithFeedback	0	0	0	0	Doreen	1	4515	13	C221Q.jpeg	0	1	correct!	4546
082819	09:05:17	1	13	5.0.14.0	3	11	block3	pretrainWithFeedback	0	0	0	0	Camille	1	3676	11	C201Q.jpeg	0	1	correct!	3713
082819	09:05:17	1	13	5.0.14.0	3	12	block3	pretrainWithFeedback	0	0	0	0	Vera	1	2821	19	C291Q.jpeg	0	1	correct!	2845
