condsFile,northOrSouth,stimFile1a,stimFile1b,stimFile2,stimFile3,stimFile4,stimFile5,QeggPainting1,Qcharacter1,Qgift1,QeggPainting2,Qcharacter2,Qgift2,Qname1,Qtheme1,Qname2,Qtheme2,block.thisRepN,block.thisTrialN,block.thisN,block.thisIndex,trials.thisRepN,trials.thisTrialN,trials.thisN,trials.thisIndex,noQtrials.thisRepN,noQtrials.thisTrialN,noQtrials.thisN,noQtrials.thisIndex,Qtrials.thisRepN,Qtrials.thisTrialN,Qtrials.thisN,Qtrials.thisIndex,text.started,text.stopped,prep_trigger.keys,prep_trigger.rt,prep_trigger.started,prep_trigger.stopped,waiting.started,waiting.stopped,trigger.keys,trigger.rt,trigger.started,trigger.stopped,image_2.started,image_2.stopped,trialNoQs.started,trialNoQs.stopped,vid1a.started,vid1a.stopped,vid1b.started,vid1b.stopped,vid2.started,vid2.stopped,vid3.started,vid3.stopped,vid4.started,vid4.stopped,vid5.started,vid5.stopped,ISI2.started,ISI2.stopped,vid1a_q.started,vid1a_q.stopped,vid1b_q.started,vid1b_q.stopped,vid2_q.started,vid2_q.stopped,l2q.started,l2q.stopped,vid3_q.started,vid3_q.stopped,l3q.started,l3q.stopped,vid4_q.started,vid4_q.stopped,vid5_q.started,vid5_q.stopped,key_resp_2.keys,key_resp_2.started,key_resp_2.stopped,key_resp_3.keys,key_resp_3.rt,key_resp_3.started,key_resp_3.stopped,ISI7.started,ISI7.stopped,nameQresp.keys,nameQresp.started,nameQresp.stopped,nameQ1.started,nameQ1.stopped,nameQ2.started,nameQ2.stopped,eggPainting1.started,eggPainting1.stopped,eggPaintingQresp.keys,eggPaintingQresp.rt,eggPaintingQresp.started,eggPaintingQresp.stopped,eggPainting2.started,eggPainting2.stopped,character1.started,character1.stopped,character2.started,character2.stopped,Qcharacter.keys,Qcharacter.rt,Qcharacter.started,Qcharacter.stopped,themeQresp.keys,themeQresp.rt,themeQresp.started,themeQresp.stopped,themeQ1.started,themeQ1.stopped,themeQ2.started,themeQ2.stopped,gift1.started,gift1.stopped,gift2.started,gift2.stopped,giftQresp.keys,giftQresp.rt,giftQresp.started,giftQresp.stopped,northorsouth1.started,northorsouth1.stopped,northOrSouthQ.keys,northOrSouthQ.rt,northOrSouthQ.started,northOrSouthQ.stopped,northorsouth2.started,northorsouth2.stopped,nameQresp.rt,key_resp_2.rt,session,participant,date,expName,psychopyVersion,frameRate,
,,,,,,,,,,,,,,,,,,,,,,,,,,,,,,,,,,6.618387857452035,None,g,1.2706951647996902,6.618387857452035,None,,,,,,,,,,,,,,,,,,,,,,,,,,,,,,,,,,,,,,,,,,,,,,,,,,,,,,,,,,,,,,,,,,,,,,,,,,,,,,,,,,,,,,,,,,,,,,,,,,,001,16,2019_Sep_16_1030,Block1,3.1.2,60.00214606748668,
,,,,,,,,,,,,,,,,,,,,,,,,,,,,,,,,,,,,,,,,7.901772120036185,None,equal,15.735719489865005,7.901772120036185,None,,,,,,,,,,,,,,,,,,,,,,,,,,,,,,,,,,,,,,,,,,,,,,,,,,,,,,,,,,,,,,,,,,,,,,,,,,,,,,,,,,,,,,,,,,,,,001,16,2019_Sep_16_1030,Block1,3.1.2,60.00214606748668,
videoBlock_schemaS_pathA_2.csv,south.png,stims/wedding-25.1a.mp4,stims/wedding-25.1b.mp4,stims/wedding-25.2a.mp4,stims/wedding-25.3b.mp4,stims/wedding-25.4a.mp4,stims/wedding-25.5.mp4,stimsday1details/egg25.png,stimsday1details/couple25.png,stimsday1details/gift25.png,stimsday1details/newegg8.png,stimsday1details/newperson8.png,stimsday1details/new8.png,stimsday1details/cn25.png,stimsday1details/ct25.png,stimsday1details/n25.png,stimsday1details/t25.png,0,0,0,1,0,0,0,0,0,0,0,0,,,,,,,,,,,,,,,,,23.684957985766232,None,None,None,None,None,None,None,None,None,None,None,None,None,None,None,,,,,,,,,,,,,,,,,,,,,,,,,,,,,,,,,,,,,,,,,,,,,,,,,,,,,,,,,,,,,,,,,,,,,,,,,,,,,001,16,2019_Sep_16_1030,Block1,3.1.2,60.00214606748668,
videoBlock_schemaS_pathA_2.csv,south.png,stims/wedding-25.1a.mp4,stims/wedding-25.1b.mp4,stims/wedding-25.2a.mp4,stims/wedding-25.3b.mp4,stims/wedding-25.4a.mp4,stims/wedding-25.5.mp4,stimsday1details/egg25.png,stimsday1details/couple25.png,stimsday1details/gift25.png,stimsday1details/newegg8.png,stimsday1details/newperson8.png,stimsday1details/new8.png,stimsday1details/cn25.png,stimsday1details/ct25.png,stimsday1details/n25.png,stimsday1details/t25.png,0,0,0,1,0,0,0,0,,,,,0,0,0,0,,,,,,,,,,,,,,,,,,,,,,,,,,,,,2.7833652580156922,None,36.068157168105245,65.78438080940396,65.80105639342219,None,74.80094871483743,None,91.80073347873986,95.7839902387932,95.80069250427186,118.78374857082963,118.80039571318775,122.7836878914386,122.80035548470914,146.7834481364116,146.80011883284897,None,None,90.80082341562957,95.7839902387932,"['1', '1']","[86.22735239844769, 3.0021908367052674]",117.80040508694947,122.7836878914386,,,,,,,,,,,,,,,,,,,,,,,,,,,,,,,,,,,,,,,,,,,,,,,,,,,,001,16,2019_Sep_16_1030,Block1,3.1.2,60.00214606748668,
videoBlock_schemaS_pathA_2.csv,south.png,stims/wedding-25.1a.mp4,stims/wedding-25.1b.mp4,stims/wedding-25.2a.mp4,stims/wedding-25.3b.mp4,stims/wedding-25.4a.mp4,stims/wedding-25.5.mp4,stimsday1details/egg25.png,stimsday1details/couple25.png,stimsday1details/gift25.png,stimsday1details/newegg8.png,stimsday1details/newperson8.png,stimsday1details/new8.png,stimsday1details/cn25.png,stimsday1details/ct25.png,stimsday1details/n25.png,stimsday1details/t25.png,0,0,0,1,0,0,0,0,,,,,,,,,,,,,,,,,,,,,,,,,,,,,,,,,,,,,,,,,,,,,,,,,,,,,,,,,,,,,,3.1657516956329346e-05,None,None,161.06648591998965,None,161.06648591998965,None,161.06648591998965,None,163.04986508376896,None,1,1.550304839387536,163.04986508376896,None,163.04986508376896,None,165.04976925626397,None,165.04976925626397,None,1,1.435456800274551,165.04976925626397,None,2,1.018671689555049,167.0498698502779,None,167.0498698502779,None,167.0498698502779,None,169.0497315544635,None,169.0497315544635,None,1,0.7855779640376568,169.0497315544635,None,171.04977073241025,None,2,1.002366348169744,171.04977073241025,None,171.04977073241025,None,,,001,16,2019_Sep_16_1030,Block1,3.1.2,60.00214606748668,
videoBlock_schemaS_pathB_1.csv,south.png,stims/wedding-39.1a.mp4,stims/wedding-39.1b.mp4,stims/wedding-39.2b.mp4,stims/wedding-39.3a.mp4,stims/wedding-39.4b.mp4,stims/wedding-39.5.mp4,stimsday1details/newpainting7.png,stimsday1details/newperson19.png,stimsday1details/gift39.png,stimsday1details/painting39.png,stimsday1details/couple39.png,stimsday1details/new19.png,stimsday1details/n39.png,stimsday1details/t39.png,stimsday1details/cn39.png,stimsday1details/ct39.png,0,1,1,3,0,0,0,0,0,0,0,0,,,,,,,,,,,,,,,,,173.23307121172547,None,2.915299045853317,None,182.6496239658445,None,212.2492556758225,None,221.24914666172117,238.2323516588658,238.2489444790408,261.23198575433344,261.24865322746336,285.2316926671192,285.2483148621395,None,,,,,,,,,,,,,,,,,,,,,,,,,,,,,,,,,,,,,,,,,,,,,,,,,,,,,,,,,,,,,,,,,,,,,,,,,,,,,001,16,2019_Sep_16_1030,Block1,3.1.2,60.00214606748668,
videoBlock_schemaS_pathB_1.csv,south.png,stims/wedding-39.1a.mp4,stims/wedding-39.1b.mp4,stims/wedding-39.2b.mp4,stims/wedding-39.3a.mp4,stims/wedding-39.4b.mp4,stims/wedding-39.5.mp4,stimsday1details/newpainting7.png,stimsday1details/newperson19.png,stimsday1details/gift39.png,stimsday1details/painting39.png,stimsday1details/couple39.png,stimsday1details/new19.png,stimsday1details/n39.png,stimsday1details/t39.png,stimsday1details/cn39.png,stimsday1details/ct39.png,0,1,1,3,0,0,0,0,,,,,0,0,0,0,,,,,,,,,,,,,,,,,,,,,,,,,,,,,None,None,None,None,None,None,None,None,None,None,None,None,None,None,None,None,None,None,None,None,None,None,,None,None,,,,,,,,,,,,,,,,,,,,,,,,,,,,,,,,,,,,,,,,,,,,,,,,,,,,001,16,2019_Sep_16_1030,Block1,3.1.2,60.00214606748668,
videoBlock_schemaS_pathB_1.csv,south.png,stims/wedding-39.1a.mp4,stims/wedding-39.1b.mp4,stims/wedding-39.2b.mp4,stims/wedding-39.3a.mp4,stims/wedding-39.4b.mp4,stims/wedding-39.5.mp4,stimsday1details/newpainting7.png,stimsday1details/newperson19.png,stimsday1details/gift39.png,stimsday1details/painting39.png,stimsday1details/couple39.png,stimsday1details/new19.png,stimsday1details/n39.png,stimsday1details/t39.png,stimsday1details/cn39.png,stimsday1details/ct39.png,0,1,1,3,0,0,0,0,,,,,,,,,,,,,,,,,,,,,,,,,,,,,,,,,,,,,,,,,,,,,,,,,,,,,,,,,,,,,,2.9363669455051422e-05,None,1,302.4648830536753,None,302.4648830536753,None,302.4648830536753,None,304.4481309270486,None,2,0.7518764473497868,304.4481309270486,None,304.4481309270486,None,306.44809798244387,None,306.44809798244387,None,2,1.0684001157060266,306.44809798244387,None,1,0.9351962227374315,308.4480165913701,None,308.4480165913701,None,308.4480165913701,None,310.4480410767719,None,310.4480410767719,None,1,0.7852739468216896,310.4480410767719,None,312.44801839999855,None,2,0.8355868374928832,312.44801839999855,None,312.44801839999855,None,1.6708528203889728,,001,16,2019_Sep_16_1030,Block1,3.1.2,60.00214606748668,
videoBlock_schemaS_pathA_1.csv,south.png,stims/wedding-14.1a.mp4,stims/wedding-14.1b.mp4,stims/wedding-14.2a.mp4,stims/wedding-14.3b.mp4,stims/wedding-14.4a.mp4,stims/wedding-14.5.mp4,stimsday1details/newegg7.png,stimsday1details/newperson7.png,stimsday1details/gift14.png,stimsday1details/egg14.png,stimsday1details/couple14.png,stimsday1details/new7.png,stimsday1details/n14.png,stimsday1details/t14.png,stimsday1details/cn14.png,stimsday1details/ct14.png,0,2,2,0,0,0,0,0,0,0,0,0,,,,,,,,,,,,,,,,,314.66465995367616,None,2.897086917422712,None,324.06454523280263,353.6641871565953,353.68084643315524,None,362.680732941255,None,379.6805273955688,402.66357231512666,402.6802382841706,426.6632773736492,426.67994654364884,None,,,,,,,,,,,,,,,,,,,,,,,,,,,,,,,,,,,,,,,,,,,,,,,,,,,,,,,,,,,,,,,,,,,,,,,,,,,,,001,16,2019_Sep_16_1030,Block1,3.1.2,60.00214606748668,
videoBlock_schemaS_pathA_1.csv,south.png,stims/wedding-14.1a.mp4,stims/wedding-14.1b.mp4,stims/wedding-14.2a.mp4,stims/wedding-14.3b.mp4,stims/wedding-14.4a.mp4,stims/wedding-14.5.mp4,stimsday1details/newegg7.png,stimsday1details/newperson7.png,stimsday1details/gift14.png,stimsday1details/egg14.png,stimsday1details/couple14.png,stimsday1details/new7.png,stimsday1details/n14.png,stimsday1details/t14.png,stimsday1details/cn14.png,stimsday1details/ct14.png,0,2,2,0,0,0,0,0,,,,,0,0,0,0,,,,,,,,,,,,,,,,,,,,,,,,,,,,,None,None,None,None,None,None,None,None,None,None,None,None,None,None,None,None,None,None,None,None,None,None,,None,None,,,,,,,,,,,,,,,,,,,,,,,,,,,,,,,,,,,,,,,,,,,,,,,,,,,,001,16,2019_Sep_16_1030,Block1,3.1.2,60.00214606748668,
videoBlock_schemaS_pathA_1.csv,south.png,stims/wedding-14.1a.mp4,stims/wedding-14.1b.mp4,stims/wedding-14.2a.mp4,stims/wedding-14.3b.mp4,stims/wedding-14.4a.mp4,stims/wedding-14.5.mp4,stimsday1details/newegg7.png,stimsday1details/newperson7.png,stimsday1details/gift14.png,stimsday1details/egg14.png,stimsday1details/couple14.png,stimsday1details/new7.png,stimsday1details/n14.png,stimsday1details/t14.png,stimsday1details/cn14.png,stimsday1details/ct14.png,0,2,2,0,0,0,0,0,,,,,,,,,,,,,,,,,,,,,,,,,,,,,,,,,,,,,,,,,,,,,,,,,,,,,,,,,,,,,,3.4961849451065063e-05,None,1,444.3006577929482,None,444.3006577929482,None,444.3006577929482,None,446.2797007178888,None,2,0.6850743079558015,446.2797007178888,None,446.2797007178888,None,448.2796830078587,None,448.2796830078587,None,2,0.8851352818310261,448.2796830078587,None,1,0.8354371441528201,450.27965541370213,None,450.27965541370213,None,450.27965541370213,None,452.27962698973715,None,452.27962698973715,None,1,0.9018612056970596,452.27962698973715,None,454.279579279013,None,2,0.768796200864017,454.279579279013,None,454.279579279013,None,0.848272773437202,,001,16,2019_Sep_16_1030,Block1,3.1.2,60.00214606748668,
videoBlock_schemaS_pathB_3.csv,south.png,stims/wedding-41.1a.mp4,stims/wedding-41.1b.mp4,stims/wedding-41.2b.mp4,stims/wedding-41.3a.mp4,stims/wedding-41.4b.mp4,stims/wedding-41.5.mp4,stimsday1details/painting41.png,stimsday1details/couple41.png,stimsday1details/new21.png,stimsday1details/newpainting9.png,stimsday1details/newperson21.png,stimsday1details/gift41.png,stimsday1details/cn41.png,stimsday1details/t41.png,stimsday1details/n41.png,stimsday1details/ct41.png,0,3,3,5,0,0,0,0,0,0,0,0,,,,,,,,,,,,,,,,,456.529572927393,None,3.003419840708375,None,466.03321318887174,495.5290922280401,495.54580955579877,504.5289967460558,504.5456509338692,None,521.5454588979483,544.5284531340003,544.5451561529189,None,568.5448590209708,None,,,,,,,,,,,,,,,,,,,,,,,,,,,,,,,,,,,,,,,,,,,,,,,,,,,,,,,,,,,,,,,,,,,,,,,,,,,,,001,16,2019_Sep_16_1030,Block1,3.1.2,60.00214606748668,
videoBlock_schemaS_pathB_3.csv,south.png,stims/wedding-41.1a.mp4,stims/wedding-41.1b.mp4,stims/wedding-41.2b.mp4,stims/wedding-41.3a.mp4,stims/wedding-41.4b.mp4,stims/wedding-41.5.mp4,stimsday1details/painting41.png,stimsday1details/couple41.png,stimsday1details/new21.png,stimsday1details/newpainting9.png,stimsday1details/newperson21.png,stimsday1details/gift41.png,stimsday1details/cn41.png,stimsday1details/t41.png,stimsday1details/n41.png,stimsday1details/ct41.png,0,3,3,5,0,0,0,0,,,,,0,0,0,0,,,,,,,,,,,,,,,,,,,,,,,,,,,,,None,None,None,None,None,None,None,None,None,None,None,None,None,None,None,None,None,None,None,None,None,None,,None,None,,,,,,,,,,,,,,,,,,,,,,,,,,,,,,,,,,,,,,,,,,,,,,,,,,,,001,16,2019_Sep_16_1030,Block1,3.1.2,60.00214606748668,
videoBlock_schemaS_pathB_3.csv,south.png,stims/wedding-41.1a.mp4,stims/wedding-41.1b.mp4,stims/wedding-41.2b.mp4,stims/wedding-41.3a.mp4,stims/wedding-41.4b.mp4,stims/wedding-41.5.mp4,stimsday1details/painting41.png,stimsday1details/couple41.png,stimsday1details/new21.png,stimsday1details/newpainting9.png,stimsday1details/newperson21.png,stimsday1details/gift41.png,stimsday1details/cn41.png,stimsday1details/t41.png,stimsday1details/n41.png,stimsday1details/ct41.png,0,3,3,5,0,0,0,0,,,,,,,,,,,,,,,,,,,,,,,,,,,,,,,,,,,,,,,,,,,,,,,,,,,,,,,,,,,,,,5.9369951486587524e-05,None,2,586.8280505565926,None,586.8280505565926,None,586.8280505565926,None,588.8112726761028,None,1,0.684947308152914,588.8112726761028,None,588.8112726761028,None,590.8112462488934,None,590.8112462488934,None,1,0.8518922934308648,590.8112462488934,None,1,1.1686942232772708,592.8112213648856,None,592.8112213648856,None,592.8112213648856,None,594.8111998876557,None,594.8111998876557,None,2,0.6686759907752275,594.8111998876557,None,596.8111721435562,None,2,0.7023171503096819,596.8111721435562,None,596.8111721435562,None,1.368610723875463,,001,16,2019_Sep_16_1030,Block1,3.1.2,60.00214606748668,
videoBlock_schemaS_pathB_2.csv,south.png,stims/wedding-32.1a.mp4,stims/wedding-32.1b.mp4,stims/wedding-32.2b.mp4,stims/wedding-32.3a.mp4,stims/wedding-32.4b.mp4,stims/wedding-32.5.mp4,stimsday1details/newpainting8.png,stimsday1details/newperson20.png,stimsday1details/new20.png,stimsday1details/painting32.png,stimsday1details/couple32.png,stimsday1details/gift32.png,stimsday1details/n32.png,stimsday1details/t32.png,stimsday1details/cn32.png,stimsday1details/ct32.png,0,4,4,4,0,0,0,0,0,0,0,0,,,,,,,,,,,,,,,,,599.0944752432406,None,2.825010035187006,None,608.4110966809094,638.0939951147884,638.1106519894674,None,647.1105516562238,None,664.1103456066921,687.0933710001409,687.1100614983588,711.0930987652391,711.1097587579861,None,,,,,,,,,,,,,,,,,,,,,,,,,,,,,,,,,,,,,,,,,,,,,,,,,,,,,,,,,,,,,,,,,,,,,,,,,,,,,001,16,2019_Sep_16_1030,Block1,3.1.2,60.00214606748668,
videoBlock_schemaS_pathB_2.csv,south.png,stims/wedding-32.1a.mp4,stims/wedding-32.1b.mp4,stims/wedding-32.2b.mp4,stims/wedding-32.3a.mp4,stims/wedding-32.4b.mp4,stims/wedding-32.5.mp4,stimsday1details/newpainting8.png,stimsday1details/newperson20.png,stimsday1details/new20.png,stimsday1details/painting32.png,stimsday1details/couple32.png,stimsday1details/gift32.png,stimsday1details/n32.png,stimsday1details/t32.png,stimsday1details/cn32.png,stimsday1details/ct32.png,0,4,4,4,0,0,0,0,,,,,0,0,0,0,,,,,,,,,,,,,,,,,,,,,,,,,,,,,None,None,None,None,None,None,None,None,None,None,None,None,None,None,None,None,None,None,None,None,None,None,,None,None,,,,,,,,,,,,,,,,,,,,,,,,,,,,,,,,,,,,,,,,,,,,,,,,,,,,001,16,2019_Sep_16_1030,Block1,3.1.2,60.00214606748668,
videoBlock_schemaS_pathB_2.csv,south.png,stims/wedding-32.1a.mp4,stims/wedding-32.1b.mp4,stims/wedding-32.2b.mp4,stims/wedding-32.3a.mp4,stims/wedding-32.4b.mp4,stims/wedding-32.5.mp4,stimsday1details/newpainting8.png,stimsday1details/newperson20.png,stimsday1details/new20.png,stimsday1details/painting32.png,stimsday1details/couple32.png,stimsday1details/gift32.png,stimsday1details/n32.png,stimsday1details/t32.png,stimsday1details/cn32.png,stimsday1details/ct32.png,0,4,4,4,0,0,0,0,,,,,,,,,,,,,,,,,,,,,,,,,,,,,,,,,,,,,,,,,,,,,,,,,,,,,,,,,,,,,,4.127994179725647e-05,None,1,726.9595952713862,None,726.9595952713862,None,726.9595952713862,None,728.9428722271696,None,2,0.6688532689586282,728.9428722271696,None,728.9428722271696,None,730.9428514903411,None,730.9428514903411,None,2,0.9683666657656431,730.9428514903411,None,1,0.9856333583593369,732.9428238803521,None,732.9428238803521,None,732.9428238803521,None,734.9427973972633,None,734.9427973972633,None,2,0.7353452062234282,734.9427973972633,None,736.942774258554,None,2,0.7356995083391666,736.942774258554,None,736.942774258554,None,1.4852121071889997,,001,16,2019_Sep_16_1030,Block1,3.1.2,60.00214606748668,
videoBlock_schemaS_pathA_3.csv,south.png,stims/wedding-36.1a.mp4,stims/wedding-36.1b.mp4,stims/wedding-36.2a.mp4,stims/wedding-36.3b.mp4,stims/wedding-36.4a.mp4,stims/wedding-36.5.mp4,stimsday1details/egg36.png,stimsday1details/couple36.png,stimsday1details/gift36.png,stimsday1details/newegg9.png,stimsday1details/newperson9.png,stimsday1details/new9.png,stimsday1details/n36.png,stimsday1details/t36.png,stimsday1details/cn36.png,stimsday1details/ct36.png,0,5,5,2,0,0,0,0,0,0,0,0,,,,,,,,,,,,,,,,,739.2594172917306,None,None,None,None,None,None,None,None,None,None,None,None,None,None,None,,,,,,,,,,,,,,,,,,,,,,,,,,,,,,,,,,,,,,,,,,,,,,,,,,,,,,,,,,,,,,,,,,,,,,,,,,,,,001,16,2019_Sep_16_1030,Block1,3.1.2,60.00214606748668,
videoBlock_schemaS_pathA_3.csv,south.png,stims/wedding-36.1a.mp4,stims/wedding-36.1b.mp4,stims/wedding-36.2a.mp4,stims/wedding-36.3b.mp4,stims/wedding-36.4a.mp4,stims/wedding-36.5.mp4,stimsday1details/egg36.png,stimsday1details/couple36.png,stimsday1details/gift36.png,stimsday1details/newegg9.png,stimsday1details/newperson9.png,stimsday1details/new9.png,stimsday1details/n36.png,stimsday1details/t36.png,stimsday1details/cn36.png,stimsday1details/ct36.png,0,5,5,2,0,0,0,0,,,,,0,0,0,0,,,,,,,,,,,,,,,,,,,,,,,,,,,,,2.9586740965023637,None,751.9259261460975,None,781.4755508480594,790.4587765298784,790.4754966106266,807.4585639201105,807.4752320554107,811.4585083937272,811.4751814333722,834.4582381891087,834.4748272290453,838.4582050489262,838.4748508129269,None,862.4745505359024,None,['2'],806.4752463931218,811.4585083937272,['1'],[2.4353094091638923],833.474911258556,838.4582050489262,,,,,,,,,,,,,,,,,,,,,,,,,,,,,,,,,,,,,,,,,,,,,,,,,,,[3.285383004695177],001,16,2019_Sep_16_1030,Block1,3.1.2,60.00214606748668,
videoBlock_schemaS_pathA_3.csv,south.png,stims/wedding-36.1a.mp4,stims/wedding-36.1b.mp4,stims/wedding-36.2a.mp4,stims/wedding-36.3b.mp4,stims/wedding-36.4a.mp4,stims/wedding-36.5.mp4,stimsday1details/egg36.png,stimsday1details/couple36.png,stimsday1details/gift36.png,stimsday1details/newegg9.png,stimsday1details/newperson9.png,stimsday1details/new9.png,stimsday1details/n36.png,stimsday1details/t36.png,stimsday1details/cn36.png,stimsday1details/ct36.png,0,5,5,2,0,0,0,0,,,,,,,,,,,,,,,,,,,,,,,,,,,,,,,,,,,,,,,,,,,,,,,,,,,,,,,,,,,,,,1.7033889889717102e-05,None,1,877.5442033456638,None,877.5442033456638,None,877.5442033456638,None,879.5243390733376,None,1,0.8684134101495147,879.5243390733376,None,879.5243390733376,None,881.5243155537173,None,881.5243155537173,None,1,0.768539572134614,881.5243155537173,None,1,0.9021904747933149,883.5242925863713,None,883.5242925863713,None,883.5242925863713,None,885.5242778966203,None,885.5242778966203,None,1,0.7350816279649734,885.5242778966203,None,887.5242392877117,None,2,0.7022133842110634,887.5242392877117,None,887.5242392877117,None,0.8991610957309604,,001,16,2019_Sep_16_1030,Block1,3.1.2,60.00214606748668,
