northOrSouth,stimFile1a,stimFile1b,stimFile2,stimFile3,stimFile4,stimFile5,Qeggpainting1,Qeggpainting2,Qcharacter1,Qcharacter2,Qgift1,Qgift2,Qname1,Qname2,Qtheme1,Qtheme2,trials.thisRepN,trials.thisTrialN,trials.thisN,trials.thisIndex,South.thisRepN,South.thisTrialN,South.thisN,South.thisIndex,North.thisRepN,North.thisTrialN,North.thisN,North.thisIndex,noQtrials.thisRepN,noQtrials.thisTrialN,noQtrials.thisN,noQtrials.thisIndex,Qtrials.thisRepN,Qtrials.thisTrialN,Qtrials.thisN,Qtrials.thisIndex,text.started,text.stopped,prep_trigger.keys,prep_trigger.rt,prep_trigger.started,prep_trigger.stopped,waiting.started,waiting.stopped,trigger.keys,trigger.rt,trigger.started,trigger.stopped,southCueImage.started,southCueImage.stopped,northCueImage.started,northCueImage.stopped,trialNoQs.started,trialNoQs.stopped,vid1a.started,vid1a.stopped,vid1b.started,vid1b.stopped,vid2.started,vid2.stopped,vid3.started,vid3.stopped,vid4.started,vid4.stopped,vid5.started,vid5.stopped,ISI2.started,ISI2.stopped,vid1a_q.started,vid1a_q.stopped,vid1b_q.started,vid1b_q.stopped,vid2_q.started,vid2_q.stopped,l2q.started,l2q.stopped,vid3_q.started,vid3_q.stopped,l3q.started,l3q.stopped,vid4_q.started,vid4_q.stopped,vid5_q.started,vid5_q.stopped,key_resp_2.keys,key_resp_2.rt,key_resp_2.started,key_resp_2.stopped,key_resp_3.keys,key_resp_3.rt,key_resp_3.started,key_resp_3.stopped,ISI7.started,ISI7.stopped,nameQresp.keys,nameQresp.rt,nameQresp.started,nameQresp.stopped,nameQ1.started,nameQ1.stopped,nameQ2.started,nameQ2.stopped,eggPainting1.started,eggPainting1.stopped,eggPaintingQresp.keys,eggPaintingQresp.rt,eggPaintingQresp.started,eggPaintingQresp.stopped,eggPainting2.started,eggPainting2.stopped,character1.started,character1.stopped,character2.started,character2.stopped,Qcharacter.keys,Qcharacter.rt,Qcharacter.started,Qcharacter.stopped,themeQresp.keys,themeQresp.rt,themeQresp.started,themeQresp.stopped,themeQ1.started,themeQ1.stopped,themeQ2.started,themeQ2.stopped,gift1.started,gift1.stopped,gift2.started,gift2.stopped,giftQresp.keys,giftQresp.rt,giftQresp.started,giftQresp.stopped,northorsouth1.started,northorsouth1.stopped,northorsouth2.started,northorsouth2.stopped,northOrSouthQ.keys,northOrSouthQ.rt,northOrSouthQ.started,northOrSouthQ.stopped,session,participant,date,expName,psychopyVersion,frameRate,
,,,,,,,,,,,,,,,,,,,,,,,,,,,,,,,,,,,,,7.000229106284678,None,g,1.2710789320990443,7.000229106284678,None,,,,,,,,,,,,,,,,,,,,,,,,,,,,,,,,,,,,,,,,,,,,,,,,,,,,,,,,,,,,,,,,,,,,,,,,,,,,,,,,,,,,,,,,,,,,,,,,,,,,,001,17,2019_Sep_18_0923,viewing,3.1.2,60.01992257368238,
,,,,,,,,,,,,,,,,,,,,,,,,,,,,,,,,,,,,,,,,,,,8.283557624556124,None,equal,23.618674512021244,8.283557624556124,None,,,,,,,,,,,,,,,,,,,,,,,,,,,,,,,,,,,,,,,,,,,,,,,,,,,,,,,,,,,,,,,,,,,,,,,,,,,,,,,,,,,,,,,,,,,,,,,001,17,2019_Sep_18_0923,viewing,3.1.2,60.01992257368238,
south.png,stims/wedding-22.1a.mp4,stims/wedding-22.1b.mp4,stims/wedding-22.2b.mp4,stims/wedding-22.3a.mp4,stims/wedding-22.4b.mp4,stims/wedding-22.5.mp4,stimsday2details/newpainting13.png,stimsday2details/painting22.png,stimsday2details/couple22.png,stimsday2details/newperson25.png,stimsday2details/gift22.png,stimsday2details/new25.png,stimsday2details/cn22.png,stimsday2details/n22.png,stimsday2details/t22.png,stimsday2details/ct22.png,0,0,0,0,0,0,0,0,,,,,,,,,,,,,,,,,,,,,,,,,31.94992194417864,None,,,,,,,,,,,,,,,,,,,,,,,,,,,,,,,,,,,,,,,,,,,,,,,,,,,,,,,,,,,,,,,,,,,,,,,,,,,,,,,,,,,,,,,,,,,,,001,17,2019_Sep_18_0923,viewing,3.1.2,60.01992257368238,
south.png,stims/wedding-22.1a.mp4,stims/wedding-22.1b.mp4,stims/wedding-22.2b.mp4,stims/wedding-22.3a.mp4,stims/wedding-22.4b.mp4,stims/wedding-22.5.mp4,stimsday2details/newpainting13.png,stimsday2details/painting22.png,stimsday2details/couple22.png,stimsday2details/newperson25.png,stimsday2details/gift22.png,stimsday2details/new25.png,stimsday2details/cn22.png,stimsday2details/n22.png,stimsday2details/t22.png,stimsday2details/ct22.png,0,0,0,0,,,,,0,0,0,0,,,,,,,,,,,,,,,,,,,,,,,None,None,,,,,,,,,,,,,,,,,,,,,,,,,,,,,,,,,,,,,,,,,,,,,,,,,,,,,,,,,,,,,,,,,,,,,,,,,,,,,,,,,,,,,,,,,,,001,17,2019_Sep_18_0923,viewing,3.1.2,60.01992257368238,
south.png,stims/wedding-22.1a.mp4,stims/wedding-22.1b.mp4,stims/wedding-22.2b.mp4,stims/wedding-22.3a.mp4,stims/wedding-22.4b.mp4,stims/wedding-22.5.mp4,stimsday2details/newpainting13.png,stimsday2details/painting22.png,stimsday2details/couple22.png,stimsday2details/newperson25.png,stimsday2details/gift22.png,stimsday2details/new25.png,stimsday2details/cn22.png,stimsday2details/n22.png,stimsday2details/t22.png,stimsday2details/ct22.png,0,0,0,0,,,,,,,,,0,0,0,0,,,,,,,,,,,,,,,,,,,,,None,None,None,None,None,None,None,None,None,None,None,None,None,None,,,,,,,,,,,,,,,,,,,,,,,,,,,,,,,,,,,,,,,,,,,,,,,,,,,,,,,,,,,,,,,,,,,,,,,,,,,,,001,17,2019_Sep_18_0923,viewing,3.1.2,60.01992257368238,
south.png,stims/wedding-22.1a.mp4,stims/wedding-22.1b.mp4,stims/wedding-22.2b.mp4,stims/wedding-22.3a.mp4,stims/wedding-22.4b.mp4,stims/wedding-22.5.mp4,stimsday2details/newpainting13.png,stimsday2details/painting22.png,stimsday2details/couple22.png,stimsday2details/newperson25.png,stimsday2details/gift22.png,stimsday2details/new25.png,stimsday2details/cn22.png,stimsday2details/n22.png,stimsday2details/t22.png,stimsday2details/ct22.png,0,0,0,0,,,,,,,,,,,,,0,0,0,0,,,,,,,,,,,,,,,,,,,,,,,,,,,,,,,2.793820089660585,None,44.93657850008458,70.13277850393206,70.1494479700923,None,79.14949397183955,None,96.14906397461891,100.1323896786198,100.14902262017131,123.13213036954403,123.14879625290632,127.13208665233105,127.14874908979982,None,151.14847890660167,None,['1'],[3.8185777999460697],95.14914437755942,100.1323896786198,['2'],[2.4351707408204675],122.14884778764099,127.13208665233105,,,,,,,,,,,,,,,,,,,,,,,,,,,,,,,,,,,,,,,,,,,,,,,,,,,001,17,2019_Sep_18_0923,viewing,3.1.2,60.01992257368238,
south.png,stims/wedding-22.1a.mp4,stims/wedding-22.1b.mp4,stims/wedding-22.2b.mp4,stims/wedding-22.3a.mp4,stims/wedding-22.4b.mp4,stims/wedding-22.5.mp4,stimsday2details/newpainting13.png,stimsday2details/painting22.png,stimsday2details/couple22.png,stimsday2details/newperson25.png,stimsday2details/gift22.png,stimsday2details/new25.png,stimsday2details/cn22.png,stimsday2details/n22.png,stimsday2details/t22.png,stimsday2details/ct22.png,0,0,0,0,,,,,,,,,,,,,,,,,,,,,,,,,,,,,,,,,,,,,,,,,,,,,,,,,,,,,,,,,,,,,,,,,,,,,,,,,2.3731030523777008e-05,None,2,1.0855080280452967,171.6648749858141,None,171.6648749858141,None,171.6648749858141,None,173.66485065221786,None,2,1.0018702065572143,173.66485065221786,None,173.66485065221786,None,175.66482041589916,None,175.66482041589916,None,1,0.8852455774322152,175.66482041589916,None,1,1.7336363093927503,177.66479459404945,None,177.66479459404945,None,177.66479459404945,None,179.66476585064083,None,179.66476585064083,None,1,0.8686526520177722,179.66476585064083,None,181.66474836785346,None,181.66474836785346,None,2,0.7357295686379075,181.66474836785346,None,001,17,2019_Sep_18_0923,viewing,3.1.2,60.01992257368238,
north.png,stims/wedding-19.1a.mp4,stims/wedding-19.1b.mp4,stims/wedding-19.2b.mp4,stims/wedding-19.3b.mp4,stims/wedding-19.4b.mp4,stims/wedding-19.5.mp4,stimsday2details/painting19.png,stimsday2details/newpainting14.png,stimsday2details/newperson26.png,stimsday2details/couple19.png,stimsday2details/new26.png,stimsday2details/gift19.png,stimsday2details/n19.png,stimsday2details/cn19.png,stimsday2details/ct19.png,stimsday2details/t19.png,0,1,1,1,0,0,0,0,,,,,,,,,,,,,,,,,,,,,,,,,None,None,,,,,,,,,,,,,,,,,,,,,,,,,,,,,,,,,,,,,,,,,,,,,,,,,,,,,,,,,,,,,,,,,,,,,,,,,,,,,,,,,,,,,,,,,,,,,001,17,2019_Sep_18_0923,viewing,3.1.2,60.01992257368238,
north.png,stims/wedding-19.1a.mp4,stims/wedding-19.1b.mp4,stims/wedding-19.2b.mp4,stims/wedding-19.3b.mp4,stims/wedding-19.4b.mp4,stims/wedding-19.5.mp4,stimsday2details/painting19.png,stimsday2details/newpainting14.png,stimsday2details/newperson26.png,stimsday2details/couple19.png,stimsday2details/new26.png,stimsday2details/gift19.png,stimsday2details/n19.png,stimsday2details/cn19.png,stimsday2details/ct19.png,stimsday2details/t19.png,0,1,1,1,,,,,0,0,0,0,,,,,,,,,,,,,,,,,,,,,,,183.7147252643481,None,,,,,,,,,,,,,,,,,,,,,,,,,,,,,,,,,,,,,,,,,,,,,,,,,,,,,,,,,,,,,,,,,,,,,,,,,,,,,,,,,,,,,,,,,,,001,17,2019_Sep_18_0923,viewing,3.1.2,60.01992257368238,
north.png,stims/wedding-19.1a.mp4,stims/wedding-19.1b.mp4,stims/wedding-19.2b.mp4,stims/wedding-19.3b.mp4,stims/wedding-19.4b.mp4,stims/wedding-19.5.mp4,stimsday2details/painting19.png,stimsday2details/newpainting14.png,stimsday2details/newperson26.png,stimsday2details/couple19.png,stimsday2details/new26.png,stimsday2details/gift19.png,stimsday2details/n19.png,stimsday2details/cn19.png,stimsday2details/ct19.png,stimsday2details/t19.png,0,1,1,1,,,,,,,,,0,0,0,0,,,,,,,,,,,,,,,,,,,,,3.031017624773085,None,193.80013527255505,218.76428215578198,218.78095547202975,None,227.78084211982787,244.76396729797125,244.78064284659922,267.7636835472658,267.7803572183475,None,291.78005637042224,None,,,,,,,,,,,,,,,,,,,,,,,,,,,,,,,,,,,,,,,,,,,,,,,,,,,,,,,,,,,,,,,,,,,,,,,,,,,,,001,17,2019_Sep_18_0923,viewing,3.1.2,60.01992257368238,
north.png,stims/wedding-19.1a.mp4,stims/wedding-19.1b.mp4,stims/wedding-19.2b.mp4,stims/wedding-19.3b.mp4,stims/wedding-19.4b.mp4,stims/wedding-19.5.mp4,stimsday2details/painting19.png,stimsday2details/newpainting14.png,stimsday2details/newperson26.png,stimsday2details/couple19.png,stimsday2details/new26.png,stimsday2details/gift19.png,stimsday2details/n19.png,stimsday2details/cn19.png,stimsday2details/ct19.png,stimsday2details/t19.png,0,1,1,1,,,,,,,,,,,,,0,0,0,0,,,,,,,,,,,,,,,,,,,,,,,,,,,,,,,None,None,None,None,None,None,None,None,None,None,None,None,None,None,None,None,None,None,None,,None,None,None,,None,None,,,,,,,,,,,,,,,,,,,,,,,,,,,,,,,,,,,,,,,,,,,,,,,,,,,001,17,2019_Sep_18_0923,viewing,3.1.2,60.01992257368238,
north.png,stims/wedding-19.1a.mp4,stims/wedding-19.1b.mp4,stims/wedding-19.2b.mp4,stims/wedding-19.3b.mp4,stims/wedding-19.4b.mp4,stims/wedding-19.5.mp4,stimsday2details/painting19.png,stimsday2details/newpainting14.png,stimsday2details/newperson26.png,stimsday2details/couple19.png,stimsday2details/new26.png,stimsday2details/gift19.png,stimsday2details/n19.png,stimsday2details/cn19.png,stimsday2details/ct19.png,stimsday2details/t19.png,0,1,1,1,,,,,,,,,,,,,,,,,,,,,,,,,,,,,,,,,,,,,,,,,,,,,,,,,,,,,,,,,,,,,,,,,,,,,,,,,3.777444362640381e-05,None,1,0.6668142955750227,315.7817633394152,None,315.7817633394152,None,315.7817633394152,None,317.76306022144854,None,1,0.7352659106254578,317.76306022144854,None,317.76306022144854,None,319.7630433663726,None,319.7630433663726,None,2,0.8019134700298309,319.7630433663726,None,2,0.9019976053386927,321.76301617361605,None,321.76301617361605,None,321.76301617361605,None,323.76299458462745,None,323.76299458462745,None,2,0.8516999809071422,323.76299458462745,None,325.76296874694526,None,325.76296874694526,None,1,0.9672932364046574,325.76296874694526,None,001,17,2019_Sep_18_0923,viewing,3.1.2,60.01992257368238,
north.png,stims/wedding-29.1a.mp4,stims/wedding-29.1b.mp4,stims/wedding-29.2a.mp4,stims/wedding-29.3a.mp4,stims/wedding-29.4a.mp4,stims/wedding-29.5.mp4,stimsday2details/egg29.png,stimsday2details/newegg13.png,stimsday2details/newperson27.png,stimsday2details/couple29.png,stimsday2details/new27.png,stimsday2details/gift29.png,stimsday2details/n29.png,stimsday2details/cn29.png,stimsday2details/t29.png,stimsday2details/ct29.png,0,2,2,2,0,0,0,0,,,,,,,,,,,,,,,,,,,,,,,,,None,None,,,,,,,,,,,,,,,,,,,,,,,,,,,,,,,,,,,,,,,,,,,,,,,,,,,,,,,,,,,,,,,,,,,,,,,,,,,,,,,,,,,,,,,,,,,,,001,17,2019_Sep_18_0923,viewing,3.1.2,60.01992257368238,
north.png,stims/wedding-29.1a.mp4,stims/wedding-29.1b.mp4,stims/wedding-29.2a.mp4,stims/wedding-29.3a.mp4,stims/wedding-29.4a.mp4,stims/wedding-29.5.mp4,stimsday2details/egg29.png,stimsday2details/newegg13.png,stimsday2details/newperson27.png,stimsday2details/couple29.png,stimsday2details/new27.png,stimsday2details/gift29.png,stimsday2details/n29.png,stimsday2details/cn29.png,stimsday2details/t29.png,stimsday2details/ct29.png,0,2,2,2,,,,,0,0,0,0,,,,,,,,,,,,,,,,,,,,,,,327.8296152818948,None,,,,,,,,,,,,,,,,,,,,,,,,,,,,,,,,,,,,,,,,,,,,,,,,,,,,,,,,,,,,,,,,,,,,,,,,,,,,,,,,,,,,,,,,,,,001,17,2019_Sep_18_0923,viewing,3.1.2,60.01992257368238,
north.png,stims/wedding-29.1a.mp4,stims/wedding-29.1b.mp4,stims/wedding-29.2a.mp4,stims/wedding-29.3a.mp4,stims/wedding-29.4a.mp4,stims/wedding-29.5.mp4,stimsday2details/egg29.png,stimsday2details/newegg13.png,stimsday2details/newperson27.png,stimsday2details/couple29.png,stimsday2details/new27.png,stimsday2details/gift29.png,stimsday2details/n29.png,stimsday2details/cn29.png,stimsday2details/t29.png,stimsday2details/ct29.png,0,2,2,2,,,,,,,,,0,0,0,0,,,,,,,,,,,,,,,,,,,,,2.877950791269541,None,337.7842334359884,362.89584338944405,362.91251023020595,None,371.9123999271542,None,388.9122038278729,None,411.9119018269703,None,435.9115315089002,None,,,,,,,,,,,,,,,,,,,,,,,,,,,,,,,,,,,,,,,,,,,,,,,,,,,,,,,,,,,,,,,,,,,,,,,,,,,,,001,17,2019_Sep_18_0923,viewing,3.1.2,60.01992257368238,
north.png,stims/wedding-29.1a.mp4,stims/wedding-29.1b.mp4,stims/wedding-29.2a.mp4,stims/wedding-29.3a.mp4,stims/wedding-29.4a.mp4,stims/wedding-29.5.mp4,stimsday2details/egg29.png,stimsday2details/newegg13.png,stimsday2details/newperson27.png,stimsday2details/couple29.png,stimsday2details/new27.png,stimsday2details/gift29.png,stimsday2details/n29.png,stimsday2details/cn29.png,stimsday2details/t29.png,stimsday2details/ct29.png,0,2,2,2,,,,,,,,,,,,,0,0,0,0,,,,,,,,,,,,,,,,,,,,,,,,,,,,,,,None,None,None,None,None,None,None,None,None,None,None,None,None,None,None,None,None,None,None,,None,None,None,,None,None,,,,,,,,,,,,,,,,,,,,,,,,,,,,,,,,,,,,,,,,,,,,,,,,,,,001,17,2019_Sep_18_0923,viewing,3.1.2,60.01992257368238,
north.png,stims/wedding-29.1a.mp4,stims/wedding-29.1b.mp4,stims/wedding-29.2a.mp4,stims/wedding-29.3a.mp4,stims/wedding-29.4a.mp4,stims/wedding-29.5.mp4,stimsday2details/egg29.png,stimsday2details/newegg13.png,stimsday2details/newperson27.png,stimsday2details/couple29.png,stimsday2details/new27.png,stimsday2details/gift29.png,stimsday2details/n29.png,stimsday2details/cn29.png,stimsday2details/t29.png,stimsday2details/ct29.png,0,2,2,2,,,,,,,,,,,,,,,,,,,,,,,,,,,,,,,,,,,,,,,,,,,,,,,,,,,,,,,,,,,,,,,,,,,,,,,,,3.9968639612197876e-05,None,1,0.5636426052078605,459.2328090891242,None,459.2328090891242,None,459.2328090891242,None,461.21128872036934,None,1,0.5851974552497268,461.21128872036934,None,461.21128872036934,None,463.2112661963329,None,463.2112661963329,None,2,0.6872274158522487,463.2112661963329,None,1,1.9185751946642995,465.21124063432217,None,465.21124063432217,None,465.21124063432217,None,467.21121952403337,None,467.21121952403337,None,2,0.8185578854754567,467.21121952403337,None,469.21120005846024,None,469.21120005846024,None,1,0.9516308354213834,469.21120005846024,None,001,17,2019_Sep_18_0923,viewing,3.1.2,60.01992257368238,
south.png,stims/wedding-20.1a.mp4,stims/wedding-20.1b.mp4,stims/wedding-20.2a.mp4,stims/wedding-20.3b.mp4,stims/wedding-20.4a.mp4,stims/wedding-20.5.mp4,stimsday2details/egg20.png,stimsday2details/newegg14.png,stimsday2details/couple20.png,stimsday2details/newperson28.png,stimsday2details/gift20.png,stimsday2details/new28.png,stimsday2details/n20.png,stimsday2details/cn20.png,stimsday2details/ct20.png,stimsday2details/t20.png,0,3,3,3,0,0,0,0,,,,,,,,,,,,,,,,,,,,,,,,,471.21117373462766,None,,,,,,,,,,,,,,,,,,,,,,,,,,,,,,,,,,,,,,,,,,,,,,,,,,,,,,,,,,,,,,,,,,,,,,,,,,,,,,,,,,,,,,,,,,,,,001,17,2019_Sep_18_0923,viewing,3.1.2,60.01992257368238,
south.png,stims/wedding-20.1a.mp4,stims/wedding-20.1b.mp4,stims/wedding-20.2a.mp4,stims/wedding-20.3b.mp4,stims/wedding-20.4a.mp4,stims/wedding-20.5.mp4,stimsday2details/egg20.png,stimsday2details/newegg14.png,stimsday2details/couple20.png,stimsday2details/newperson28.png,stimsday2details/gift20.png,stimsday2details/new28.png,stimsday2details/n20.png,stimsday2details/cn20.png,stimsday2details/ct20.png,stimsday2details/t20.png,0,3,3,3,,,,,0,0,0,0,,,,,,,,,,,,,,,,,,,,,,,None,None,,,,,,,,,,,,,,,,,,,,,,,,,,,,,,,,,,,,,,,,,,,,,,,,,,,,,,,,,,,,,,,,,,,,,,,,,,,,,,,,,,,,,,,,,,,001,17,2019_Sep_18_0923,viewing,3.1.2,60.01992257368238,
south.png,stims/wedding-20.1a.mp4,stims/wedding-20.1b.mp4,stims/wedding-20.2a.mp4,stims/wedding-20.3b.mp4,stims/wedding-20.4a.mp4,stims/wedding-20.5.mp4,stimsday2details/egg20.png,stimsday2details/newegg14.png,stimsday2details/couple20.png,stimsday2details/newperson28.png,stimsday2details/gift20.png,stimsday2details/new28.png,stimsday2details/n20.png,stimsday2details/cn20.png,stimsday2details/ct20.png,stimsday2details/t20.png,0,3,3,3,,,,,,,,,0,0,0,0,,,,,,,,,,,,,,,,,,,,,2.8934251852333546,None,481.2777213761583,506.39406823553145,506.39406823553145,None,515.3939553573728,None,532.3937494959682,555.3934618541971,555.3934618541971,579.3931617522612,579.3931617522612,None,,,,,,,,,,,,,,,,,,,,,,,,,,,,,,,,,,,,,,,,,,,,,,,,,,,,,,,,,,,,,,,,,,,,,,,,,,,,,001,17,2019_Sep_18_0923,viewing,3.1.2,60.01992257368238,
south.png,stims/wedding-20.1a.mp4,stims/wedding-20.1b.mp4,stims/wedding-20.2a.mp4,stims/wedding-20.3b.mp4,stims/wedding-20.4a.mp4,stims/wedding-20.5.mp4,stimsday2details/egg20.png,stimsday2details/newegg14.png,stimsday2details/couple20.png,stimsday2details/newperson28.png,stimsday2details/gift20.png,stimsday2details/new28.png,stimsday2details/n20.png,stimsday2details/cn20.png,stimsday2details/ct20.png,stimsday2details/t20.png,0,3,3,3,,,,,,,,,,,,,0,0,0,0,,,,,,,,,,,,,,,,,,,,,,,,,,,,,,,None,None,None,None,None,None,None,None,None,None,None,None,None,None,None,None,None,None,None,,None,None,None,,None,None,,,,,,,,,,,,,,,,,,,,,,,,,,,,,,,,,,,,,,,,,,,,,,,,,,,001,17,2019_Sep_18_0923,viewing,3.1.2,60.01992257368238,
south.png,stims/wedding-20.1a.mp4,stims/wedding-20.1b.mp4,stims/wedding-20.2a.mp4,stims/wedding-20.3b.mp4,stims/wedding-20.4a.mp4,stims/wedding-20.5.mp4,stimsday2details/egg20.png,stimsday2details/newegg14.png,stimsday2details/couple20.png,stimsday2details/newperson28.png,stimsday2details/gift20.png,stimsday2details/new28.png,stimsday2details/n20.png,stimsday2details/cn20.png,stimsday2details/ct20.png,stimsday2details/t20.png,0,3,3,3,,,,,,,,,,,,,,,,,,,,,,,,,,,,,,,,,,,,,,,,,,,,,,,,,,,,,,,,,,,,,,,,,,,,,,,,,4.2088329792022705e-05,None,1,0.9524111207574606,602.1262768022716,None,602.1262768022716,None,602.1262768022716,None,604.1261901231483,None,1,0.7189893396571279,604.1261901231483,None,604.1261901231483,None,606.1261612577364,None,606.1261612577364,None,1,0.7669509323313832,606.1261612577364,None,2,0.7352063870057464,608.1261447239667,None,608.1261447239667,None,608.1261447239667,None,610.1261129649356,None,610.1261129649356,None,1,0.6188488863408566,610.1261129649356,None,612.126093769446,None,612.126093769446,None,2,1.0519288908690214,612.126093769446,None,001,17,2019_Sep_18_0923,viewing,3.1.2,60.01992257368238,
south.png,stims/wedding-6.1a.mp4,stims/wedding-6.1b.mp4,stims/wedding-6.2b.mp4,stims/wedding-6.3a.mp4,stims/wedding-6.4b.mp4,stims/wedding-6.5.mp4,stimsday2details/painting6.png,stimsday2details/newpainting15.png,stimsday2details/couple6.png,stimsday2details/newperson29.png,stimsday2details/gift6.png,stimsday2details/new29.png,stimsday2details/n6.png,stimsday2details/cn6.png,stimsday2details/t6.png,stimsday2details/ct6.png,0,4,4,4,0,0,0,0,,,,,,,,,,,,,,,,,,,,,,,,,614.1260647745803,None,,,,,,,,,,,,,,,,,,,,,,,,,,,,,,,,,,,,,,,,,,,,,,,,,,,,,,,,,,,,,,,,,,,,,,,,,,,,,,,,,,,,,,,,,,,,,001,17,2019_Sep_18_0923,viewing,3.1.2,60.01992257368238,
south.png,stims/wedding-6.1a.mp4,stims/wedding-6.1b.mp4,stims/wedding-6.2b.mp4,stims/wedding-6.3a.mp4,stims/wedding-6.4b.mp4,stims/wedding-6.5.mp4,stimsday2details/painting6.png,stimsday2details/newpainting15.png,stimsday2details/couple6.png,stimsday2details/newperson29.png,stimsday2details/gift6.png,stimsday2details/new29.png,stimsday2details/n6.png,stimsday2details/cn6.png,stimsday2details/t6.png,stimsday2details/ct6.png,0,4,4,4,,,,,0,0,0,0,,,,,,,,,,,,,,,,,,,,,,,None,None,,,,,,,,,,,,,,,,,,,,,,,,,,,,,,,,,,,,,,,,,,,,,,,,,,,,,,,,,,,,,,,,,,,,,,,,,,,,,,,,,,,,,,,,,,,001,17,2019_Sep_18_0923,viewing,3.1.2,60.01992257368238,
south.png,stims/wedding-6.1a.mp4,stims/wedding-6.1b.mp4,stims/wedding-6.2b.mp4,stims/wedding-6.3a.mp4,stims/wedding-6.4b.mp4,stims/wedding-6.5.mp4,stimsday2details/painting6.png,stimsday2details/newpainting15.png,stimsday2details/couple6.png,stimsday2details/newperson29.png,stimsday2details/gift6.png,stimsday2details/new29.png,stimsday2details/n6.png,stimsday2details/cn6.png,stimsday2details/t6.png,stimsday2details/ct6.png,0,4,4,4,,,,,,,,,0,0,0,0,,,,,,,,,,,,,,,,,,,,,2.889748940244317,None,624.2464112276211,649.3589073615149,649.3589073615149,None,658.3587982831523,None,675.3586424803361,698.3583575962111,698.3583575962111,None,722.3580669583753,None,,,,,,,,,,,,,,,,,,,,,,,,,,,,,,,,,,,,,,,,,,,,,,,,,,,,,,,,,,,,,,,,,,,,,,,,,,,,,001,17,2019_Sep_18_0923,viewing,3.1.2,60.01992257368238,
south.png,stims/wedding-6.1a.mp4,stims/wedding-6.1b.mp4,stims/wedding-6.2b.mp4,stims/wedding-6.3a.mp4,stims/wedding-6.4b.mp4,stims/wedding-6.5.mp4,stimsday2details/painting6.png,stimsday2details/newpainting15.png,stimsday2details/couple6.png,stimsday2details/newperson29.png,stimsday2details/gift6.png,stimsday2details/new29.png,stimsday2details/n6.png,stimsday2details/cn6.png,stimsday2details/t6.png,stimsday2details/ct6.png,0,4,4,4,,,,,,,,,,,,,0,0,0,0,,,,,,,,,,,,,,,,,,,,,,,,,,,,,,,None,None,None,None,None,None,None,None,None,None,None,None,None,None,None,None,None,None,None,,None,None,None,,None,None,,,,,,,,,,,,,,,,,,,,,,,,,,,,,,,,,,,,,,,,,,,,,,,,,,,001,17,2019_Sep_18_0923,viewing,3.1.2,60.01992257368238,
south.png,stims/wedding-6.1a.mp4,stims/wedding-6.1b.mp4,stims/wedding-6.2b.mp4,stims/wedding-6.3a.mp4,stims/wedding-6.4b.mp4,stims/wedding-6.5.mp4,stimsday2details/painting6.png,stimsday2details/newpainting15.png,stimsday2details/couple6.png,stimsday2details/newperson29.png,stimsday2details/gift6.png,stimsday2details/new29.png,stimsday2details/n6.png,stimsday2details/cn6.png,stimsday2details/t6.png,stimsday2details/ct6.png,0,4,4,4,,,,,,,,,,,,,,,,,,,,,,,,,,,,,,,,,,,,,,,,,,,,,,,,,,,,,,,,,,,,,,,,,,,,,,,,,3.137066960334778e-05,None,1,0.6188656780868769,746.141157370992,None,746.141157370992,None,746.141157370992,None,748.1410755207762,None,1,0.6191044338047504,748.1410755207762,None,748.1410755207762,None,750.1410490572453,None,750.1410490572453,None,1,0.6356554701924324,750.1410490572453,None,1,0.6353232534602284,752.1410322869197,None,752.1410322869197,None,752.1410322869197,None,754.1409959541634,None,754.1409959541634,None,1,0.6186196198686957,754.1409959541634,None,756.1409749770537,None,756.1409749770537,None,2,1.0020212521776557,756.1409749770537,None,001,17,2019_Sep_18_0923,viewing,3.1.2,60.01992257368238,
north.png,stims/wedding-34.1a.mp4,stims/wedding-34.1b.mp4,stims/wedding-34.2b.mp4,stims/wedding-34.3b.mp4,stims/wedding-34.4b.mp4,stims/wedding-34.5.mp4,stimsday2details/painting34.png,stimsday2details/newpainting16.png,stimsday2details/newperson30.png,stimsday2details/couple34.png,stimsday2details/gift34.png,stimsday2details/new30.png,stimsday2details/n34.png,stimsday2details/cn34.png,stimsday2details/ct34.png,stimsday2details/t34.png,0,5,5,5,0,0,0,0,,,,,,,,,,,,,,,,,,,,,,,,,None,None,,,,,,,,,,,,,,,,,,,,,,,,,,,,,,,,,,,,,,,,,,,,,,,,,,,,,,,,,,,,,,,,,,,,,,,,,,,,,,,,,,,,,,,,,,,,,001,17,2019_Sep_18_0923,viewing,3.1.2,60.01992257368238,
north.png,stims/wedding-34.1a.mp4,stims/wedding-34.1b.mp4,stims/wedding-34.2b.mp4,stims/wedding-34.3b.mp4,stims/wedding-34.4b.mp4,stims/wedding-34.5.mp4,stimsday2details/painting34.png,stimsday2details/newpainting16.png,stimsday2details/newperson30.png,stimsday2details/couple34.png,stimsday2details/gift34.png,stimsday2details/new30.png,stimsday2details/n34.png,stimsday2details/cn34.png,stimsday2details/ct34.png,stimsday2details/t34.png,0,5,5,5,,,,,0,0,0,0,,,,,,,,,,,,,,,,,,,,,,,758.2742753271013,None,,,,,,,,,,,,,,,,,,,,,,,,,,,,,,,,,,,,,,,,,,,,,,,,,,,,,,,,,,,,,,,,,,,,,,,,,,,,,,,,,,,,,,,,,,,001,17,2019_Sep_18_0923,viewing,3.1.2,60.01992257368238,
north.png,stims/wedding-34.1a.mp4,stims/wedding-34.1b.mp4,stims/wedding-34.2b.mp4,stims/wedding-34.3b.mp4,stims/wedding-34.4b.mp4,stims/wedding-34.5.mp4,stimsday2details/painting34.png,stimsday2details/newpainting16.png,stimsday2details/newperson30.png,stimsday2details/couple34.png,stimsday2details/gift34.png,stimsday2details/new30.png,stimsday2details/n34.png,stimsday2details/cn34.png,stimsday2details/ct34.png,stimsday2details/t34.png,0,5,5,5,,,,,,,,,0,0,0,0,,,,,,,,,,,,,,,,,,,,,2.937027162872255,None,768.3408309211954,793.4071799796075,793.4238486718386,802.4070451743901,802.4237334188074,None,819.4235228672624,842.4065684219822,842.4231837633997,None,866.4229371370748,None,,,,,,,,,,,,,,,,,,,,,,,,,,,,,,,,,,,,,,,,,,,,,,,,,,,,,,,,,,,,,,,,,,,,,,,,,,,,,001,17,2019_Sep_18_0923,viewing,3.1.2,60.01992257368238,
north.png,stims/wedding-34.1a.mp4,stims/wedding-34.1b.mp4,stims/wedding-34.2b.mp4,stims/wedding-34.3b.mp4,stims/wedding-34.4b.mp4,stims/wedding-34.5.mp4,stimsday2details/painting34.png,stimsday2details/newpainting16.png,stimsday2details/newperson30.png,stimsday2details/couple34.png,stimsday2details/gift34.png,stimsday2details/new30.png,stimsday2details/n34.png,stimsday2details/cn34.png,stimsday2details/ct34.png,stimsday2details/t34.png,0,5,5,5,,,,,,,,,,,,,0,0,0,0,,,,,,,,,,,,,,,,,,,,,,,,,,,,,,,None,None,None,None,None,None,None,None,None,None,None,None,None,None,None,None,None,None,None,,None,None,None,,None,None,,,,,,,,,,,,,,,,,,,,,,,,,,,,,,,,,,,,,,,,,,,,,,,,,,,001,17,2019_Sep_18_0923,viewing,3.1.2,60.01992257368238,
north.png,stims/wedding-34.1a.mp4,stims/wedding-34.1b.mp4,stims/wedding-34.2b.mp4,stims/wedding-34.3b.mp4,stims/wedding-34.4b.mp4,stims/wedding-34.5.mp4,stimsday2details/painting34.png,stimsday2details/newpainting16.png,stimsday2details/newperson30.png,stimsday2details/couple34.png,stimsday2details/gift34.png,stimsday2details/new30.png,stimsday2details/n34.png,stimsday2details/cn34.png,stimsday2details/ct34.png,stimsday2details/t34.png,0,5,5,5,,,,,,,,,,,,,,,,,,,,,,,,,,,,,,,,,,,,,,,,,,,,,,,,,,,,,,,,,,,,,,,,,,,,,,,,,4.1608698666095734e-05,None,1,0.7018132861703634,889.9393288195133,None,889.9393288195133,None,889.9393288195133,None,891.9392910040915,None,1,0.7850434267893434,891.9392910040915,None,891.9392910040915,None,893.9392600944266,None,893.9392600944266,None,2,0.7353682313114405,893.9392600944266,None,2,0.8186030806973577,895.9392425781116,None,895.9392425781116,None,895.9392425781116,None,897.9392106356099,None,897.9392106356099,None,1,0.585162915289402,897.9392106356099,None,899.9391888109967,None,899.9391888109967,None,1,1.7021799851208925,899.9391888109967,None,001,17,2019_Sep_18_0923,viewing,3.1.2,60.01992257368238,
north.png,stims/wedding-2.1a.mp4,stims/wedding-2.1b.mp4,stims/wedding-2.2a.mp4,stims/wedding-2.3a.mp4,stims/wedding-2.4a.mp4,stims/wedding-2.5.mp4,stimsday2details/newegg15.png,stimsday2details/egg2.png,stimsday2details/couple2.png,stimsday2details/newperson31.png,stimsday2details/new31.png,stimsday2details/gift2.png,stimsday2details/n2.png,stimsday2details/cn2.png,stimsday2details/t2.png,stimsday2details/ct2.png,0,6,6,6,0,0,0,0,,,,,,,,,,,,,,,,,,,,,,,,,None,None,,,,,,,,,,,,,,,,,,,,,,,,,,,,,,,,,,,,,,,,,,,,,,,,,,,,,,,,,,,,,,,,,,,,,,,,,,,,,,,,,,,,,,,,,,,,,001,17,2019_Sep_18_0923,viewing,3.1.2,60.01992257368238,
north.png,stims/wedding-2.1a.mp4,stims/wedding-2.1b.mp4,stims/wedding-2.2a.mp4,stims/wedding-2.3a.mp4,stims/wedding-2.4a.mp4,stims/wedding-2.5.mp4,stimsday2details/newegg15.png,stimsday2details/egg2.png,stimsday2details/couple2.png,stimsday2details/newperson31.png,stimsday2details/new31.png,stimsday2details/gift2.png,stimsday2details/n2.png,stimsday2details/cn2.png,stimsday2details/t2.png,stimsday2details/ct2.png,0,6,6,6,,,,,0,0,0,0,,,,,,,,,,,,,,,,,,,,,,,902.0891745360568,None,,,,,,,,,,,,,,,,,,,,,,,,,,,,,,,,,,,,,,,,,,,,,,,,,,,,,,,,,,,,,,,,,,,,,,,,,,,,,,,,,,,,,,,,,,,001,17,2019_Sep_18_0923,viewing,3.1.2,60.01992257368238,
north.png,stims/wedding-2.1a.mp4,stims/wedding-2.1b.mp4,stims/wedding-2.2a.mp4,stims/wedding-2.3a.mp4,stims/wedding-2.4a.mp4,stims/wedding-2.5.mp4,stimsday2details/newegg15.png,stimsday2details/egg2.png,stimsday2details/couple2.png,stimsday2details/newperson31.png,stimsday2details/new31.png,stimsday2details/gift2.png,stimsday2details/n2.png,stimsday2details/cn2.png,stimsday2details/t2.png,stimsday2details/ct2.png,0,6,6,6,,,,,,,,,0,0,0,0,,,,,,,,,,,,,,,,,,,,,2.761334888637066,None,912.2724611563608,None,937.5220541544259,None,946.5219280691817,None,963.5217387238517,986.5213924618438,986.5213924618438,None,1010.5211526965722,None,,,,,,,,,,,,,,,,,,,,,,,,,,,,,,,,,,,,,,,,,,,,,,,,,,,,,,,,,,,,,,,,,,,,,,,,,,,,,001,17,2019_Sep_18_0923,viewing,3.1.2,60.01992257368238,
north.png,stims/wedding-2.1a.mp4,stims/wedding-2.1b.mp4,stims/wedding-2.2a.mp4,stims/wedding-2.3a.mp4,stims/wedding-2.4a.mp4,stims/wedding-2.5.mp4,stimsday2details/newegg15.png,stimsday2details/egg2.png,stimsday2details/couple2.png,stimsday2details/newperson31.png,stimsday2details/new31.png,stimsday2details/gift2.png,stimsday2details/n2.png,stimsday2details/cn2.png,stimsday2details/t2.png,stimsday2details/ct2.png,0,6,6,6,,,,,,,,,,,,,0,0,0,0,,,,,,,,,,,,,,,,,,,,,,,,,,,,,,,None,None,None,None,None,None,None,None,None,None,None,None,None,None,None,None,None,None,None,,None,None,None,,None,None,,,,,,,,,,,,,,,,,,,,,,,,,,,,,,,,,,,,,,,,,,,,,,,,,,,001,17,2019_Sep_18_0923,viewing,3.1.2,60.01992257368238,
north.png,stims/wedding-2.1a.mp4,stims/wedding-2.1b.mp4,stims/wedding-2.2a.mp4,stims/wedding-2.3a.mp4,stims/wedding-2.4a.mp4,stims/wedding-2.5.mp4,stimsday2details/newegg15.png,stimsday2details/egg2.png,stimsday2details/couple2.png,stimsday2details/newperson31.png,stimsday2details/new31.png,stimsday2details/gift2.png,stimsday2details/n2.png,stimsday2details/cn2.png,stimsday2details/t2.png,stimsday2details/ct2.png,0,6,6,6,,,,,,,,,,,,,,,,,,,,,,,,,,,,,,,,,,,,,,,,,,,,,,,,,,,,,,,,,,,,,,,,,,,,,,,,,3.4446828067302704e-05,None,1,0.8522981544956565,1034.3042473224923,None,1034.3042473224923,None,1034.3042473224923,None,1036.3041618950665,None,2,0.8352669551968575,1036.3041618950665,None,1036.3041618950665,None,1038.3041346454993,None,1038.3041346454993,None,1,0.6849951548501849,1038.3041346454993,None,1,0.8351181503385305,1040.3041122034192,None,1040.3041122034192,None,1040.3041122034192,None,1042.3040924165398,None,1042.3040924165398,None,2,0.7184435445815325,1042.3040924165398,None,1044.304064287804,None,1044.304064287804,None,1,1.2359158704057336,1044.304064287804,None,001,17,2019_Sep_18_0923,viewing,3.1.2,60.01992257368238,
south.png,stims/wedding-1.1a.mp4,stims/wedding-1.1b.mp4,stims/wedding-1.2a.mp4,stims/wedding-1.3b.mp4,stims/wedding-1.4a.mp4,stims/wedding-1.5.mp4,stimsday2details/egg1.png,stimsday2details/newegg16.png,stimsday2details/newperson32.png,stimsday2details/couple1.png,stimsday2details/gift1.png,stimsday2details/new32.png,stimsday2details/cn1.png,stimsday2details/n1.png,stimsday2details/ct1.png,stimsday2details/t1.png,0,7,7,7,0,0,0,0,,,,,,,,,,,,,,,,,,,,,,,,,1046.30403948389,None,,,,,,,,,,,,,,,,,,,,,,,,,,,,,,,,,,,,,,,,,,,,,,,,,,,,,,,,,,,,,,,,,,,,,,,,,,,,,,,,,,,,,,,,,,,,,001,17,2019_Sep_18_0923,viewing,3.1.2,60.01992257368238,
south.png,stims/wedding-1.1a.mp4,stims/wedding-1.1b.mp4,stims/wedding-1.2a.mp4,stims/wedding-1.3b.mp4,stims/wedding-1.4a.mp4,stims/wedding-1.5.mp4,stimsday2details/egg1.png,stimsday2details/newegg16.png,stimsday2details/newperson32.png,stimsday2details/couple1.png,stimsday2details/gift1.png,stimsday2details/new32.png,stimsday2details/cn1.png,stimsday2details/n1.png,stimsday2details/ct1.png,stimsday2details/t1.png,0,7,7,7,,,,,0,0,0,0,,,,,,,,,,,,,,,,,,,,,,,None,None,,,,,,,,,,,,,,,,,,,,,,,,,,,,,,,,,,,,,,,,,,,,,,,,,,,,,,,,,,,,,,,,,,,,,,,,,,,,,,,,,,,,,,,,,,,001,17,2019_Sep_18_0923,viewing,3.1.2,60.01992257368238,
south.png,stims/wedding-1.1a.mp4,stims/wedding-1.1b.mp4,stims/wedding-1.2a.mp4,stims/wedding-1.3b.mp4,stims/wedding-1.4a.mp4,stims/wedding-1.5.mp4,stimsday2details/egg1.png,stimsday2details/newegg16.png,stimsday2details/newperson32.png,stimsday2details/couple1.png,stimsday2details/gift1.png,stimsday2details/new32.png,stimsday2details/cn1.png,stimsday2details/n1.png,stimsday2details/ct1.png,stimsday2details/t1.png,0,7,7,7,,,,,,,,,0,0,0,0,,,,,,,,,,,,,,,,,,,,,2.949629608541727,None,1056.6039771111682,1081.6536381915212,1081.6702687423676,None,1090.6701565012336,1107.6532745333388,1107.6699488712475,1130.6529867723584,1130.6696657519788,None,1154.6693672342226,None,,,,,,,,,,,,,,,,,,,,,,,,,,,,,,,,,,,,,,,,,,,,,,,,,,,,,,,,,,,,,,,,,,,,,,,,,,,,,001,17,2019_Sep_18_0923,viewing,3.1.2,60.01992257368238,
south.png,stims/wedding-1.1a.mp4,stims/wedding-1.1b.mp4,stims/wedding-1.2a.mp4,stims/wedding-1.3b.mp4,stims/wedding-1.4a.mp4,stims/wedding-1.5.mp4,stimsday2details/egg1.png,stimsday2details/newegg16.png,stimsday2details/newperson32.png,stimsday2details/couple1.png,stimsday2details/gift1.png,stimsday2details/new32.png,stimsday2details/cn1.png,stimsday2details/n1.png,stimsday2details/ct1.png,stimsday2details/t1.png,0,7,7,7,,,,,,,,,,,,,0,0,0,0,,,,,,,,,,,,,,,,,,,,,,,,,,,,,,,None,None,None,None,None,None,None,None,None,None,None,None,None,None,None,None,None,None,None,,None,None,None,,None,None,,,,,,,,,,,,,,,,,,,,,,,,,,,,,,,,,,,,,,,,,,,,,,,,,,,001,17,2019_Sep_18_0923,viewing,3.1.2,60.01992257368238,
south.png,stims/wedding-1.1a.mp4,stims/wedding-1.1b.mp4,stims/wedding-1.2a.mp4,stims/wedding-1.3b.mp4,stims/wedding-1.4a.mp4,stims/wedding-1.5.mp4,stimsday2details/egg1.png,stimsday2details/newegg16.png,stimsday2details/newperson32.png,stimsday2details/couple1.png,stimsday2details/gift1.png,stimsday2details/new32.png,stimsday2details/cn1.png,stimsday2details/n1.png,stimsday2details/ct1.png,stimsday2details/t1.png,0,7,7,7,,,,,,,,,,,,,,,,,,,,,,,,,,,,,,,,,,,,,,,,,,,,,,,,,,,,,,,,,,,,,,,,,,,,,,,,,3.720354288816452e-05,None,2,0.8824557736515999,1178.473875763826,None,1178.473875763826,None,1178.473875763826,None,1180.452372518368,None,1,0.7184298308566213,1180.452372518368,None,1180.452372518368,None,1182.4523518169299,None,1182.4523518169299,None,2,0.701857172884047,1182.4523518169299,None,2,0.8852805281057954,1184.4523263229057,None,1184.4523263229057,None,1184.4523263229057,None,1186.4523039693013,None,1186.4523039693013,None,1,0.6517183296382427,1186.4523039693013,None,1188.4522892599925,None,1188.4522892599925,None,2,1.6352407662197948,1188.4522892599925,None,001,17,2019_Sep_18_0923,viewing,3.1.2,60.01992257368238,
south.png,stims/wedding-38.1a.mp4,stims/wedding-38.1b.mp4,stims/wedding-38.2a.mp4,stims/wedding-38.3b.mp4,stims/wedding-38.4a.mp4,stims/wedding-38.5.mp4,stimsday2details/egg38.png,stimsday2details/newegg17.png,stimsday2details/couple38.png,stimsday2details/newperson33.png,stimsday2details/new33.png,stimsday2details/gift38.png,stimsday2details/cn38.png,stimsday2details/n38.png,stimsday2details/ct38.png,stimsday2details/t38.png,0,8,8,8,0,0,0,0,,,,,,,,,,,,,,,,,,,,,,,,,1190.4522451218218,None,,,,,,,,,,,,,,,,,,,,,,,,,,,,,,,,,,,,,,,,,,,,,,,,,,,,,,,,,,,,,,,,,,,,,,,,,,,,,,,,,,,,,,,,,,,,,001,17,2019_Sep_18_0923,viewing,3.1.2,60.01992257368238,
south.png,stims/wedding-38.1a.mp4,stims/wedding-38.1b.mp4,stims/wedding-38.2a.mp4,stims/wedding-38.3b.mp4,stims/wedding-38.4a.mp4,stims/wedding-38.5.mp4,stimsday2details/egg38.png,stimsday2details/newegg17.png,stimsday2details/couple38.png,stimsday2details/newperson33.png,stimsday2details/new33.png,stimsday2details/gift38.png,stimsday2details/cn38.png,stimsday2details/n38.png,stimsday2details/ct38.png,stimsday2details/t38.png,0,8,8,8,,,,,0,0,0,0,,,,,,,,,,,,,,,,,,,,,,,None,None,,,,,,,,,,,,,,,,,,,,,,,,,,,,,,,,,,,,,,,,,,,,,,,,,,,,,,,,,,,,,,,,,,,,,,,,,,,,,,,,,,,,,,,,,,,001,17,2019_Sep_18_0923,viewing,3.1.2,60.01992257368238,
south.png,stims/wedding-38.1a.mp4,stims/wedding-38.1b.mp4,stims/wedding-38.2a.mp4,stims/wedding-38.3b.mp4,stims/wedding-38.4a.mp4,stims/wedding-38.5.mp4,stimsday2details/egg38.png,stimsday2details/newegg17.png,stimsday2details/couple38.png,stimsday2details/newperson33.png,stimsday2details/new33.png,stimsday2details/gift38.png,stimsday2details/cn38.png,stimsday2details/n38.png,stimsday2details/ct38.png,stimsday2details/t38.png,0,8,8,8,,,,,,,,,0,0,0,0,,,,,,,,,,,,,,,,,,,,,2.9855062728747725,None,1200.835697346367,1225.851834715344,1225.868475514464,None,1234.86836205516,1251.8514870423824,1251.8681624131277,1274.8511956250295,1274.8678953358904,None,1298.867598215118,None,,,,,,,,,,,,,,,,,,,,,,,,,,,,,,,,,,,,,,,,,,,,,,,,,,,,,,,,,,,,,,,,,,,,,,,,,,,,,001,17,2019_Sep_18_0923,viewing,3.1.2,60.01992257368238,
south.png,stims/wedding-38.1a.mp4,stims/wedding-38.1b.mp4,stims/wedding-38.2a.mp4,stims/wedding-38.3b.mp4,stims/wedding-38.4a.mp4,stims/wedding-38.5.mp4,stimsday2details/egg38.png,stimsday2details/newegg17.png,stimsday2details/couple38.png,stimsday2details/newperson33.png,stimsday2details/new33.png,stimsday2details/gift38.png,stimsday2details/cn38.png,stimsday2details/n38.png,stimsday2details/ct38.png,stimsday2details/t38.png,0,8,8,8,,,,,,,,,,,,,0,0,0,0,,,,,,,,,,,,,,,,,,,,,,,,,,,,,,,None,None,None,None,None,None,None,None,None,None,None,None,None,None,None,None,None,None,None,,None,None,None,,None,None,,,,,,,,,,,,,,,,,,,,,,,,,,,,,,,,,,,,,,,,,,,,,,,,,,,001,17,2019_Sep_18_0923,viewing,3.1.2,60.01992257368238,
south.png,stims/wedding-38.1a.mp4,stims/wedding-38.1b.mp4,stims/wedding-38.2a.mp4,stims/wedding-38.3b.mp4,stims/wedding-38.4a.mp4,stims/wedding-38.5.mp4,stimsday2details/egg38.png,stimsday2details/newegg17.png,stimsday2details/couple38.png,stimsday2details/newperson33.png,stimsday2details/new33.png,stimsday2details/gift38.png,stimsday2details/cn38.png,stimsday2details/n38.png,stimsday2details/ct38.png,stimsday2details/t38.png,0,8,8,8,,,,,,,,,,,,,,,,,,,,,,,,,,,,,,,,,,,,,,,,,,,,,,,,,,,,,,,,,,,,,,,,,,,,,,,,,4.5474618673324585e-05,None,2,0.6496481001377106,1322.9361319113523,None,1322.9361319113523,None,1322.9361319113523,None,1324.9171773474663,None,1,0.6518228575587273,1324.9171773474663,None,1324.9171773474663,None,1326.917222717777,None,1326.917222717777,None,1,1.1502014948055148,1326.917222717777,None,2,0.901967535726726,1328.917208360508,None,1328.917208360508,None,1328.917208360508,None,1330.9171801693738,None,1330.9171801693738,None,2,0.7684105280786753,1330.9171801693738,None,1332.9171402473003,None,1332.9171402473003,None,2,1.633646123111248,1332.9171402473003,None,001,17,2019_Sep_18_0923,viewing,3.1.2,60.01992257368238,
north.png,stims/wedding-17.1a.mp4,stims/wedding-17.1b.mp4,stims/wedding-17.2b.mp4,stims/wedding-17.3b.mp4,stims/wedding-17.4b.mp4,stims/wedding-17.5.mp4,stimsday2details/newpainting17.png,stimsday2details/painting17.png,stimsday2details/couple17.png,stimsday2details/newperson34.png,stimsday2details/gift17.png,stimsday2details/new34.png,stimsday2details/cn17.png,stimsday2details/n17.png,stimsday2details/t17.png,stimsday2details/ct17.png,0,9,9,9,0,0,0,0,,,,,,,,,,,,,,,,,,,,,,,,,None,None,,,,,,,,,,,,,,,,,,,,,,,,,,,,,,,,,,,,,,,,,,,,,,,,,,,,,,,,,,,,,,,,,,,,,,,,,,,,,,,,,,,,,,,,,,,,,001,17,2019_Sep_18_0923,viewing,3.1.2,60.01992257368238,
north.png,stims/wedding-17.1a.mp4,stims/wedding-17.1b.mp4,stims/wedding-17.2b.mp4,stims/wedding-17.3b.mp4,stims/wedding-17.4b.mp4,stims/wedding-17.5.mp4,stimsday2details/newpainting17.png,stimsday2details/painting17.png,stimsday2details/couple17.png,stimsday2details/newperson34.png,stimsday2details/gift17.png,stimsday2details/new34.png,stimsday2details/cn17.png,stimsday2details/n17.png,stimsday2details/t17.png,stimsday2details/ct17.png,0,9,9,9,,,,,0,0,0,0,,,,,,,,,,,,,,,,,,,,,,,1335.3004470253363,None,,,,,,,,,,,,,,,,,,,,,,,,,,,,,,,,,,,,,,,,,,,,,,,,,,,,,,,,,,,,,,,,,,,,,,,,,,,,,,,,,,,,,,,,,,,001,17,2019_Sep_18_0923,viewing,3.1.2,60.01992257368238,
north.png,stims/wedding-17.1a.mp4,stims/wedding-17.1b.mp4,stims/wedding-17.2b.mp4,stims/wedding-17.3b.mp4,stims/wedding-17.4b.mp4,stims/wedding-17.5.mp4,stimsday2details/newpainting17.png,stimsday2details/painting17.png,stimsday2details/couple17.png,stimsday2details/newperson34.png,stimsday2details/gift17.png,stimsday2details/new34.png,stimsday2details/cn17.png,stimsday2details/n17.png,stimsday2details/t17.png,stimsday2details/ct17.png,0,9,9,9,,,,,,,,,0,0,0,0,,,,,,,,,,,,,,,,,,,,,2.971256992779672,None,1345.5002659754828,None,1370.5333242760971,None,1379.5332343857735,None,1396.5330193154514,1419.5160118686035,1419.5327383643016,None,1443.5324344383553,None,,,,,,,,,,,,,,,,,,,,,,,,,,,,,,,,,,,,,,,,,,,,,,,,,,,,,,,,,,,,,,,,,,,,,,,,,,,,,001,17,2019_Sep_18_0923,viewing,3.1.2,60.01992257368238,
north.png,stims/wedding-17.1a.mp4,stims/wedding-17.1b.mp4,stims/wedding-17.2b.mp4,stims/wedding-17.3b.mp4,stims/wedding-17.4b.mp4,stims/wedding-17.5.mp4,stimsday2details/newpainting17.png,stimsday2details/painting17.png,stimsday2details/couple17.png,stimsday2details/newperson34.png,stimsday2details/gift17.png,stimsday2details/new34.png,stimsday2details/cn17.png,stimsday2details/n17.png,stimsday2details/t17.png,stimsday2details/ct17.png,0,9,9,9,,,,,,,,,,,,,0,0,0,0,,,,,,,,,,,,,,,,,,,,,,,,,,,,,,,None,None,None,None,None,None,None,None,None,None,None,None,None,None,None,None,None,None,None,,None,None,None,,None,None,,,,,,,,,,,,,,,,,,,,,,,,,,,,,,,,,,,,,,,,,,,,,,,,,,,001,17,2019_Sep_18_0923,viewing,3.1.2,60.01992257368238,
north.png,stims/wedding-17.1a.mp4,stims/wedding-17.1b.mp4,stims/wedding-17.2b.mp4,stims/wedding-17.3b.mp4,stims/wedding-17.4b.mp4,stims/wedding-17.5.mp4,stimsday2details/newpainting17.png,stimsday2details/painting17.png,stimsday2details/couple17.png,stimsday2details/newperson34.png,stimsday2details/gift17.png,stimsday2details/new34.png,stimsday2details/cn17.png,stimsday2details/n17.png,stimsday2details/t17.png,stimsday2details/ct17.png,0,9,9,9,,,,,,,,,,,,,,,,,,,,,,,,,,,,,,,,,,,,,,,,,,,,,,,,,,,,,,,,,,,,,,,,,,,,,,,,,4.525948315858841e-05,None,2,0.8335524369031191,1467.4821978891268,None,1467.4821978891268,None,1467.4821978891268,None,1469.482154238969,None,2,0.7519731801003218,1469.482154238969,None,1469.482154238969,None,1471.482128747739,None,1471.482128747739,None,1,0.7518227100372314,1471.482128747739,None,1,0.885019926354289,1473.4821465108544,None,1473.4821465108544,None,1473.4821465108544,None,1475.4820497278124,None,1475.4820497278124,None,1,0.6686302665621042,1475.4820497278124,None,1477.4820579113439,None,1477.4820579113439,None,1,1.7188508426770568,1477.4820579113439,None,001,17,2019_Sep_18_0923,viewing,3.1.2,60.01992257368238,
north.png,stims/wedding-23.1a.mp4,stims/wedding-23.1b.mp4,stims/wedding-23.2a.mp4,stims/wedding-23.3a.mp4,stims/wedding-23.4a.mp4,stims/wedding-23.5.mp4,stimsday2details/egg23.png,stimsday2details/newegg18.png,stimsday2details/couple23.png,stimsday2details/newperson35.png,stimsday2details/gift23.png,stimsday2details/new35.png,stimsday2details/n23.png,stimsday2details/cn23.png,stimsday2details/t23.png,stimsday2details/ct23.png,0,10,10,10,0,0,0,0,,,,,,,,,,,,,,,,,,,,,,,,,None,None,,,,,,,,,,,,,,,,,,,,,,,,,,,,,,,,,,,,,,,,,,,,,,,,,,,,,,,,,,,,,,,,,,,,,,,,,,,,,,,,,,,,,,,,,,,,,001,17,2019_Sep_18_0923,viewing,3.1.2,60.01992257368238,
north.png,stims/wedding-23.1a.mp4,stims/wedding-23.1b.mp4,stims/wedding-23.2a.mp4,stims/wedding-23.3a.mp4,stims/wedding-23.4a.mp4,stims/wedding-23.5.mp4,stimsday2details/egg23.png,stimsday2details/newegg18.png,stimsday2details/couple23.png,stimsday2details/newperson35.png,stimsday2details/gift23.png,stimsday2details/new35.png,stimsday2details/n23.png,stimsday2details/cn23.png,stimsday2details/t23.png,stimsday2details/ct23.png,0,10,10,10,,,,,0,0,0,0,,,,,,,,,,,,,,,,,,,,,,,1479.7319869734347,None,,,,,,,,,,,,,,,,,,,,,,,,,,,,,,,,,,,,,,,,,,,,,,,,,,,,,,,,,,,,,,,,,,,,,,,,,,,,,,,,,,,,,,,,,,,001,17,2019_Sep_18_0923,viewing,3.1.2,60.01992257368238,
north.png,stims/wedding-23.1a.mp4,stims/wedding-23.1b.mp4,stims/wedding-23.2a.mp4,stims/wedding-23.3a.mp4,stims/wedding-23.4a.mp4,stims/wedding-23.5.mp4,stimsday2details/egg23.png,stimsday2details/newegg18.png,stimsday2details/couple23.png,stimsday2details/newperson35.png,stimsday2details/gift23.png,stimsday2details/new35.png,stimsday2details/n23.png,stimsday2details/cn23.png,stimsday2details/t23.png,stimsday2details/ct23.png,0,10,10,10,,,,,,,,,0,0,0,0,,,,,,,,,,,,,,,,,,,,,2.9093554290011525,None,1489.881924662739,1514.9815454091877,1514.998213917017,None,1523.99810378626,1540.9812189461663,1540.9978879857808,1563.980935596861,1563.9975667390972,1587.9806378958747,1587.9973056754097,None,,,,,,,,,,,,,,,,,,,,,,,,,,,,,,,,,,,,,,,,,,,,,,,,,,,,,,,,,,,,,,,,,,,,,,,,,,,,,001,17,2019_Sep_18_0923,viewing,3.1.2,60.01992257368238,
north.png,stims/wedding-23.1a.mp4,stims/wedding-23.1b.mp4,stims/wedding-23.2a.mp4,stims/wedding-23.3a.mp4,stims/wedding-23.4a.mp4,stims/wedding-23.5.mp4,stimsday2details/egg23.png,stimsday2details/newegg18.png,stimsday2details/couple23.png,stimsday2details/newperson35.png,stimsday2details/gift23.png,stimsday2details/new35.png,stimsday2details/n23.png,stimsday2details/cn23.png,stimsday2details/t23.png,stimsday2details/ct23.png,0,10,10,10,,,,,,,,,,,,,0,0,0,0,,,,,,,,,,,,,,,,,,,,,,,,,,,,,,,None,None,None,None,None,None,None,None,None,None,None,None,None,None,None,None,None,None,None,,None,None,None,,None,None,,,,,,,,,,,,,,,,,,,,,,,,,,,,,,,,,,,,,,,,,,,,,,,,,,,001,17,2019_Sep_18_0923,viewing,3.1.2,60.01992257368238,
north.png,stims/wedding-23.1a.mp4,stims/wedding-23.1b.mp4,stims/wedding-23.2a.mp4,stims/wedding-23.3a.mp4,stims/wedding-23.4a.mp4,stims/wedding-23.5.mp4,stimsday2details/egg23.png,stimsday2details/newegg18.png,stimsday2details/couple23.png,stimsday2details/newperson35.png,stimsday2details/gift23.png,stimsday2details/new35.png,stimsday2details/n23.png,stimsday2details/cn23.png,stimsday2details/t23.png,stimsday2details/ct23.png,0,10,10,10,,,,,,,,,,,,,,,,,,,,,,,,,,,,,,,,,,,,,,,,,,,,,,,,,,,,,,,,,,,,,,,,,,,,,,,,,2.3840926587581635e-05,None,1,0.6022146549075842,1612.6137317502871,None,1612.6137317502871,None,1612.6137317502871,None,1614.596974477172,None,1,0.6184787293896079,1614.596974477172,None,1614.596974477172,None,1616.5969523368403,None,1616.5969523368403,None,1,0.71838837582618,1616.5969523368403,None,1,0.6852716486901045,1618.5969252409413,None,1618.5969252409413,None,1618.5969252409413,None,1620.5969032095745,None,1620.5969032095745,None,1,0.6021776124835014,1620.5969032095745,None,1622.596842159517,None,1622.596842159517,None,1,1.3521513249725103,1622.596842159517,None,001,17,2019_Sep_18_0923,viewing,3.1.2,60.01992257368238,
south.png,stims/wedding-28.1a.mp4,stims/wedding-28.1b.mp4,stims/wedding-28.2b.mp4,stims/wedding-28.3a.mp4,stims/wedding-28.4b.mp4,stims/wedding-28.5.mp4,stimsday2details/painting28.png,stimsday2details/newpainting18.png,stimsday2details/couple28.png,stimsday2details/newperson36.png,stimsday2details/gift28.png,stimsday2details/new36.png,stimsday2details/cn28.png,stimsday2details/n28.png,stimsday2details/ct28.png,stimsday2details/t28.png,0,11,11,11,0,0,0,0,,,,,,,,,,,,,,,,,,,,,,,,,1624.596847803332,None,,,,,,,,,,,,,,,,,,,,,,,,,,,,,,,,,,,,,,,,,,,,,,,,,,,,,,,,,,,,,,,,,,,,,,,,,,,,,,,,,,,,,,,,,,,,,001,17,2019_Sep_18_0923,viewing,3.1.2,60.01992257368238,
south.png,stims/wedding-28.1a.mp4,stims/wedding-28.1b.mp4,stims/wedding-28.2b.mp4,stims/wedding-28.3a.mp4,stims/wedding-28.4b.mp4,stims/wedding-28.5.mp4,stimsday2details/painting28.png,stimsday2details/newpainting18.png,stimsday2details/couple28.png,stimsday2details/newperson36.png,stimsday2details/gift28.png,stimsday2details/new36.png,stimsday2details/cn28.png,stimsday2details/n28.png,stimsday2details/ct28.png,stimsday2details/t28.png,0,11,11,11,,,,,0,0,0,0,,,,,,,,,,,,,,,,,,,,,,,None,None,,,,,,,,,,,,,,,,,,,,,,,,,,,,,,,,,,,,,,,,,,,,,,,,,,,,,,,,,,,,,,,,,,,,,,,,,,,,,,,,,,,,,,,,,,,001,17,2019_Sep_18_0923,viewing,3.1.2,60.01992257368238,
south.png,stims/wedding-28.1a.mp4,stims/wedding-28.1b.mp4,stims/wedding-28.2b.mp4,stims/wedding-28.3a.mp4,stims/wedding-28.4b.mp4,stims/wedding-28.5.mp4,stimsday2details/painting28.png,stimsday2details/newpainting18.png,stimsday2details/couple28.png,stimsday2details/newperson36.png,stimsday2details/gift28.png,stimsday2details/new36.png,stimsday2details/cn28.png,stimsday2details/n28.png,stimsday2details/ct28.png,stimsday2details/t28.png,0,11,11,11,,,,,,,,,0,0,0,0,,,,,,,,,,,,,,,,,,,,,None,None,None,None,None,None,None,None,None,None,None,None,None,None,,,,,,,,,,,,,,,,,,,,,,,,,,,,,,,,,,,,,,,,,,,,,,,,,,,,,,,,,,,,,,,,,,,,,,,,,,,,,001,17,2019_Sep_18_0923,viewing,3.1.2,60.01992257368238,
south.png,stims/wedding-28.1a.mp4,stims/wedding-28.1b.mp4,stims/wedding-28.2b.mp4,stims/wedding-28.3a.mp4,stims/wedding-28.4b.mp4,stims/wedding-28.5.mp4,stimsday2details/painting28.png,stimsday2details/newpainting18.png,stimsday2details/couple28.png,stimsday2details/newperson36.png,stimsday2details/gift28.png,stimsday2details/new36.png,stimsday2details/cn28.png,stimsday2details/n28.png,stimsday2details/ct28.png,stimsday2details/t28.png,0,11,11,11,,,,,,,,,,,,,0,0,0,0,,,,,,,,,,,,,,,,,,,,,,,,,,,,,,,2.7366840494796634,None,1637.95120990742,1663.2130447868258,1663.2297122748569,None,1672.2295925356448,None,1689.2293755672872,1693.2126582413912,1693.2293331362307,1716.2123198639601,1716.229039657861,1720.212269864045,1720.229002176784,None,1744.2286926619709,None,['2'],[3.4850781308487058],1688.2294267518446,1693.2126582413912,['2'],[3.8687945026904345],1715.2290641572326,1720.212269864045,,,,,,,,,,,,,,,,,,,,,,,,,,,,,,,,,,,,,,,,,,,,,,,,,,,001,17,2019_Sep_18_0923,viewing,3.1.2,60.01992257368238,
south.png,stims/wedding-28.1a.mp4,stims/wedding-28.1b.mp4,stims/wedding-28.2b.mp4,stims/wedding-28.3a.mp4,stims/wedding-28.4b.mp4,stims/wedding-28.5.mp4,stimsday2details/painting28.png,stimsday2details/newpainting18.png,stimsday2details/couple28.png,stimsday2details/newperson36.png,stimsday2details/gift28.png,stimsday2details/new36.png,stimsday2details/cn28.png,stimsday2details/n28.png,stimsday2details/ct28.png,stimsday2details/t28.png,0,11,11,11,,,,,,,,,,,,,,,,,,,,,,,,,,,,,,,,,,,,,,,,,,,,,,,,,,,,,,,,,,,,,,,,,,,,,,,,,3.274250775575638e-05,None,2,0.6304155178368092,1765.5831899838522,None,1765.5831899838522,None,1765.5831899838522,None,1767.5617330614477,None,1,0.9850856540724635,1767.5617330614477,None,1767.5617330614477,None,1769.5617163619027,None,1769.5617163619027,None,1,0.8336585825309157,1769.5617163619027,None,2,0.9351743115112185,1771.561685429886,None,1771.561685429886,None,1771.561685429886,None,1773.5616599861532,None,1773.5616599861532,None,1,0.8185559082776308,1773.5616599861532,None,1775.5616334704682,None,1775.5616334704682,None,2,1.5353388199582696,1775.5616334704682,None,001,17,2019_Sep_18_0923,viewing,3.1.2,60.01992257368238,
