northOrSouth,stimFile1a,stimFile1b,stimFile2,stimFile3,stimFile4,stimFile5,Qeggpainting1,Qeggpainting2,Qcharacter1,Qcharacter2,Qgift1,Qgift2,Qname1,Qname2,Qtheme1,Qtheme2,trials.thisRepN,trials.thisTrialN,trials.thisN,trials.thisIndex,South.thisRepN,South.thisTrialN,South.thisN,South.thisIndex,North.thisRepN,North.thisTrialN,North.thisN,North.thisIndex,noQtrials.thisRepN,noQtrials.thisTrialN,noQtrials.thisN,noQtrials.thisIndex,Qtrials.thisRepN,Qtrials.thisTrialN,Qtrials.thisN,Qtrials.thisIndex,text.started,text.stopped,prep_trigger.keys,prep_trigger.rt,prep_trigger.started,prep_trigger.stopped,waiting.started,waiting.stopped,trigger.keys,trigger.rt,trigger.started,trigger.stopped,southCueImage.started,southCueImage.stopped,northCueImage.started,northCueImage.stopped,trialNoQs.started,trialNoQs.stopped,vid1a.started,vid1a.stopped,vid1b.started,vid1b.stopped,vid2.started,vid2.stopped,vid3.started,vid3.stopped,vid4.started,vid4.stopped,vid5.started,vid5.stopped,ISI2.started,ISI2.stopped,vid1a_q.started,vid1a_q.stopped,vid1b_q.started,vid1b_q.stopped,vid2_q.started,vid2_q.stopped,l2q.started,l2q.stopped,vid3_q.started,vid3_q.stopped,l3q.started,l3q.stopped,vid4_q.started,vid4_q.stopped,vid5_q.started,vid5_q.stopped,key_resp_2.keys,key_resp_2.rt,key_resp_2.started,key_resp_2.stopped,key_resp_3.keys,key_resp_3.rt,key_resp_3.started,key_resp_3.stopped,ISI7.started,ISI7.stopped,nameQresp.keys,nameQresp.rt,nameQresp.started,nameQresp.stopped,nameQ1.started,nameQ1.stopped,nameQ2.started,nameQ2.stopped,eggPainting1.started,eggPainting1.stopped,eggPaintingQresp.keys,eggPaintingQresp.rt,eggPaintingQresp.started,eggPaintingQresp.stopped,eggPainting2.started,eggPainting2.stopped,character1.started,character1.stopped,character2.started,character2.stopped,Qcharacter.keys,Qcharacter.rt,Qcharacter.started,Qcharacter.stopped,themeQresp.keys,themeQresp.rt,themeQresp.started,themeQresp.stopped,themeQ1.started,themeQ1.stopped,themeQ2.started,themeQ2.stopped,gift1.started,gift1.stopped,gift2.started,gift2.stopped,giftQresp.keys,giftQresp.rt,giftQresp.started,giftQresp.stopped,northorsouth1.started,northorsouth1.stopped,northorsouth2.started,northorsouth2.stopped,northOrSouthQ.keys,northOrSouthQ.rt,northOrSouthQ.started,northOrSouthQ.stopped,session,participant,date,expName,psychopyVersion,frameRate,
,,,,,,,,,,,,,,,,,,,,,,,,,,,,,,,,,,,,,7.175559806986712,None,g,0.6251437880564481,7.175559806986712,None,,,,,,,,,,,,,,,,,,,,,,,,,,,,,,,,,,,,,,,,,,,,,,,,,,,,,,,,,,,,,,,,,,,,,,,,,,,,,,,,,,,,,,,,,,,,,,,,,,,,,001,24,2019_Oct_31_1333,viewing,3.1.2,60.004179060942064,
,,,,,,,,,,,,,,,,,,,,,,,,,,,,,,,,,,,,,,,,,,,7.808802578016184,None,equal,17.79145359096583,7.808802578016184,None,,,,,,,,,,,,,,,,,,,,,,,,,,,,,,,,,,,,,,,,,,,,,,,,,,,,,,,,,,,,,,,,,,,,,,,,,,,,,,,,,,,,,,,,,,,,,,,001,24,2019_Oct_31_1333,viewing,3.1.2,60.004179060942064,
south.png,stims/wedding-22.1a.mp4,stims/wedding-22.1b.mp4,stims/wedding-22.2a.mp4,stims/wedding-22.3b.mp4,stims/wedding-22.4a.mp4,stims/wedding-22.5.mp4,stimsday2details/egg22.png,stimsday2details/newegg13.png,stimsday2details/newperson25.png,stimsday2details/couple22.png,stimsday2details/gift22.png,stimsday2details/new25.png,stimsday2details/n22.png,stimsday2details/cn22.png,stimsday2details/t22.png,stimsday2details/ct22.png,0,0,0,0,0,0,0,0,,,,,,,,,,,,,,,,,,,,,,,,,25.71172290004324,None,,,,,,,,,,,,,,,,,,,,,,,,,,,,,,,,,,,,,,,,,,,,,,,,,,,,,,,,,,,,,,,,,,,,,,,,,,,,,,,,,,,,,,,,,,,,,001,24,2019_Oct_31_1333,viewing,3.1.2,60.004179060942064,
south.png,stims/wedding-22.1a.mp4,stims/wedding-22.1b.mp4,stims/wedding-22.2a.mp4,stims/wedding-22.3b.mp4,stims/wedding-22.4a.mp4,stims/wedding-22.5.mp4,stimsday2details/egg22.png,stimsday2details/newegg13.png,stimsday2details/newperson25.png,stimsday2details/couple22.png,stimsday2details/gift22.png,stimsday2details/new25.png,stimsday2details/n22.png,stimsday2details/cn22.png,stimsday2details/t22.png,stimsday2details/ct22.png,0,0,0,0,,,,,0,0,0,0,,,,,,,,,,,,,,,,,,,,,,,None,None,,,,,,,,,,,,,,,,,,,,,,,,,,,,,,,,,,,,,,,,,,,,,,,,,,,,,,,,,,,,,,,,,,,,,,,,,,,,,,,,,,,,,,,,,,,001,24,2019_Oct_31_1333,viewing,3.1.2,60.004179060942064,
south.png,stims/wedding-22.1a.mp4,stims/wedding-22.1b.mp4,stims/wedding-22.2a.mp4,stims/wedding-22.3b.mp4,stims/wedding-22.4a.mp4,stims/wedding-22.5.mp4,stimsday2details/egg22.png,stimsday2details/newegg13.png,stimsday2details/newperson25.png,stimsday2details/couple22.png,stimsday2details/gift22.png,stimsday2details/new25.png,stimsday2details/n22.png,stimsday2details/cn22.png,stimsday2details/t22.png,stimsday2details/ct22.png,0,0,0,0,,,,,,,,,0,0,0,0,,,,,,,,,,,,,,,,,,,,,None,None,None,None,None,None,None,None,None,None,None,None,None,None,,,,,,,,,,,,,,,,,,,,,,,,,,,,,,,,,,,,,,,,,,,,,,,,,,,,,,,,,,,,,,,,,,,,,,,,,,,,,001,24,2019_Oct_31_1333,viewing,3.1.2,60.004179060942064,
south.png,stims/wedding-22.1a.mp4,stims/wedding-22.1b.mp4,stims/wedding-22.2a.mp4,stims/wedding-22.3b.mp4,stims/wedding-22.4a.mp4,stims/wedding-22.5.mp4,stimsday2details/egg22.png,stimsday2details/newegg13.png,stimsday2details/newperson25.png,stimsday2details/couple22.png,stimsday2details/gift22.png,stimsday2details/new25.png,stimsday2details/n22.png,stimsday2details/cn22.png,stimsday2details/t22.png,stimsday2details/ct22.png,0,0,0,0,,,,,,,,,,,,,0,0,0,0,,,,,,,,,,,,,,,,,,,,,,,,,,,,,,,2.8005732449237257,None,39.209451840026304,64.40910674200859,64.42523203697056,None,73.42474786099046,90.41242403094657,90.42551119904965,94.41157880797982,94.42441665404476,117.41205638297834,117.42467665299773,121.41226604196709,121.4248881690437,145.41234127397183,145.42511417600326,None,['1'],[3.4681430510245264],89.42493808094878,94.41157880797982,['1'],[2.9679577850038186],116.42436118004844,121.41226604196709,,,,,,,,,,,,,,,,,,,,,,,,,,,,,,,,,,,,,,,,,,,,,,,,,,,001,24,2019_Oct_31_1333,viewing,3.1.2,60.004179060942064,
south.png,stims/wedding-22.1a.mp4,stims/wedding-22.1b.mp4,stims/wedding-22.2a.mp4,stims/wedding-22.3b.mp4,stims/wedding-22.4a.mp4,stims/wedding-22.5.mp4,stimsday2details/egg22.png,stimsday2details/newegg13.png,stimsday2details/newperson25.png,stimsday2details/couple22.png,stimsday2details/gift22.png,stimsday2details/new25.png,stimsday2details/n22.png,stimsday2details/cn22.png,stimsday2details/t22.png,stimsday2details/ct22.png,0,0,0,0,,,,,,,,,,,,,,,,,,,,,,,,,,,,,,,,,,,,,,,,,,,,,,,,,,,,,,,,,,,,,,,,,,,,,,,,,2.7947011403739452e-05,None,1,0.9194526239298284,165.95667004503775,None,165.95667004503775,None,165.95667004503775,None,167.93970573903061,None,1,0.8699264969909564,167.93970573903061,None,167.93970573903061,None,169.94013919797726,None,169.94013919797726,None,2,0.7192688309587538,169.94013919797726,None,1,1.0549632440088317,171.9451460200362,None,171.9451460200362,None,171.9451460200362,None,173.94924896094017,None,173.94924896094017,None,1,0.7625463479198515,173.94924896094017,None,175.948364019976,None,175.948364019976,None,2,0.6817725410219282,175.948364019976,None,001,24,2019_Oct_31_1333,viewing,3.1.2,60.004179060942064,
north.png,stims/wedding-20.1a.mp4,stims/wedding-20.1b.mp4,stims/wedding-20.2b.mp4,stims/wedding-20.3b.mp4,stims/wedding-20.4b.mp4,stims/wedding-20.5.mp4,stimsday2details/painting20.png,stimsday2details/newpainting13.png,stimsday2details/couple20.png,stimsday2details/newperson26.png,stimsday2details/new26.png,stimsday2details/gift20.png,stimsday2details/n20.png,stimsday2details/cn20.png,stimsday2details/ct20.png,stimsday2details/t20.png,0,1,1,1,0,0,0,0,,,,,,,,,,,,,,,,,,,,,,,,,None,None,,,,,,,,,,,,,,,,,,,,,,,,,,,,,,,,,,,,,,,,,,,,,,,,,,,,,,,,,,,,,,,,,,,,,,,,,,,,,,,,,,,,,,,,,,,,,001,24,2019_Oct_31_1333,viewing,3.1.2,60.004179060942064,
north.png,stims/wedding-20.1a.mp4,stims/wedding-20.1b.mp4,stims/wedding-20.2b.mp4,stims/wedding-20.3b.mp4,stims/wedding-20.4b.mp4,stims/wedding-20.5.mp4,stimsday2details/painting20.png,stimsday2details/newpainting13.png,stimsday2details/couple20.png,stimsday2details/newperson26.png,stimsday2details/new26.png,stimsday2details/gift20.png,stimsday2details/n20.png,stimsday2details/cn20.png,stimsday2details/ct20.png,stimsday2details/t20.png,0,1,1,1,,,,,0,0,0,0,,,,,,,,,,,,,,,,,,,,,,,177.9898764709942,None,,,,,,,,,,,,,,,,,,,,,,,,,,,,,,,,,,,,,,,,,,,,,,,,,,,,,,,,,,,,,,,,,,,,,,,,,,,,,,,,,,,,,,,,,,,001,24,2019_Oct_31_1333,viewing,3.1.2,60.004179060942064,
north.png,stims/wedding-20.1a.mp4,stims/wedding-20.1b.mp4,stims/wedding-20.2b.mp4,stims/wedding-20.3b.mp4,stims/wedding-20.4b.mp4,stims/wedding-20.5.mp4,stimsday2details/painting20.png,stimsday2details/newpainting13.png,stimsday2details/couple20.png,stimsday2details/newperson26.png,stimsday2details/new26.png,stimsday2details/gift20.png,stimsday2details/n20.png,stimsday2details/cn20.png,stimsday2details/ct20.png,stimsday2details/t20.png,0,1,1,1,,,,,,,,,0,0,0,0,,,,,,,,,,,,,,,,,,,,,2.9590892049018294,None,187.99009251897223,213.04022457194515,213.05660390702542,None,222.05613776599057,None,239.05606025201268,262.04051260394044,262.0565734859556,None,286.0434091419447,None,,,,,,,,,,,,,,,,,,,,,,,,,,,,,,,,,,,,,,,,,,,,,,,,,,,,,,,,,,,,,,,,,,,,,,,,,,,,,001,24,2019_Oct_31_1333,viewing,3.1.2,60.004179060942064,
north.png,stims/wedding-20.1a.mp4,stims/wedding-20.1b.mp4,stims/wedding-20.2b.mp4,stims/wedding-20.3b.mp4,stims/wedding-20.4b.mp4,stims/wedding-20.5.mp4,stimsday2details/painting20.png,stimsday2details/newpainting13.png,stimsday2details/couple20.png,stimsday2details/newperson26.png,stimsday2details/new26.png,stimsday2details/gift20.png,stimsday2details/n20.png,stimsday2details/cn20.png,stimsday2details/ct20.png,stimsday2details/t20.png,0,1,1,1,,,,,,,,,,,,,0,0,0,0,,,,,,,,,,,,,,,,,,,,,,,,,,,,,,,None,None,None,None,None,None,None,None,None,None,None,None,None,None,None,None,None,None,None,,None,None,None,,None,None,,,,,,,,,,,,,,,,,,,,,,,,,,,,,,,,,,,,,,,,,,,,,,,,,,,001,24,2019_Oct_31_1333,viewing,3.1.2,60.004179060942064,
north.png,stims/wedding-20.1a.mp4,stims/wedding-20.1b.mp4,stims/wedding-20.2b.mp4,stims/wedding-20.3b.mp4,stims/wedding-20.4b.mp4,stims/wedding-20.5.mp4,stimsday2details/painting20.png,stimsday2details/newpainting13.png,stimsday2details/couple20.png,stimsday2details/newperson26.png,stimsday2details/new26.png,stimsday2details/gift20.png,stimsday2details/n20.png,stimsday2details/cn20.png,stimsday2details/ct20.png,stimsday2details/t20.png,0,1,1,1,,,,,,,,,,,,,,,,,,,,,,,,,,,,,,,,,,,,,,,,,,,,,,,,,,,,,,,,,,,,,,,,,,,,,,,,,2.9028975404798985e-05,None,1,0.852257221005857,308.5052889849758,None,308.5052889849758,None,308.5052889849758,None,310.5049794160295,None,1,0.6401624199934304,310.5049794160295,None,310.5049794160295,None,312.51037160202395,None,312.51037160202395,None,1,0.6012182709528133,312.51037160202395,None,2,0.9238074260065332,314.50467877602205,None,314.50467877602205,None,314.50467877602205,None,316.50491866795346,None,316.50491866795346,None,2,0.7236267840489745,316.50491866795346,None,318.5046680440428,None,318.5046680440428,None,1,0.9232496769400313,318.5046680440428,None,001,24,2019_Oct_31_1333,viewing,3.1.2,60.004179060942064,
north.png,stims/wedding-17.1a.mp4,stims/wedding-17.1b.mp4,stims/wedding-17.2a.mp4,stims/wedding-17.3a.mp4,stims/wedding-17.4a.mp4,stims/wedding-17.5.mp4,stimsday2details/newegg14.png,stimsday2details/egg17.png,stimsday2details/newperson27.png,stimsday2details/couple17.png,stimsday2details/new27.png,stimsday2details/gift17.png,stimsday2details/cn17.png,stimsday2details/n17.png,stimsday2details/ct17.png,stimsday2details/t17.png,0,2,2,2,0,0,0,0,,,,,,,,,,,,,,,,,,,,,,,,,None,None,,,,,,,,,,,,,,,,,,,,,,,,,,,,,,,,,,,,,,,,,,,,,,,,,,,,,,,,,,,,,,,,,,,,,,,,,,,,,,,,,,,,,,,,,,,,,001,24,2019_Oct_31_1333,viewing,3.1.2,60.004179060942064,
north.png,stims/wedding-17.1a.mp4,stims/wedding-17.1b.mp4,stims/wedding-17.2a.mp4,stims/wedding-17.3a.mp4,stims/wedding-17.4a.mp4,stims/wedding-17.5.mp4,stimsday2details/newegg14.png,stimsday2details/egg17.png,stimsday2details/newperson27.png,stimsday2details/couple17.png,stimsday2details/new27.png,stimsday2details/gift17.png,stimsday2details/cn17.png,stimsday2details/n17.png,stimsday2details/ct17.png,stimsday2details/t17.png,0,2,2,2,,,,,0,0,0,0,,,,,,,,,,,,,,,,,,,,,,,320.5717294210335,None,,,,,,,,,,,,,,,,,,,,,,,,,,,,,,,,,,,,,,,,,,,,,,,,,,,,,,,,,,,,,,,,,,,,,,,,,,,,,,,,,,,,,,,,,,,001,24,2019_Oct_31_1333,viewing,3.1.2,60.004179060942064,
north.png,stims/wedding-17.1a.mp4,stims/wedding-17.1b.mp4,stims/wedding-17.2a.mp4,stims/wedding-17.3a.mp4,stims/wedding-17.4a.mp4,stims/wedding-17.5.mp4,stimsday2details/newegg14.png,stimsday2details/egg17.png,stimsday2details/newperson27.png,stimsday2details/couple17.png,stimsday2details/new27.png,stimsday2details/gift17.png,stimsday2details/cn17.png,stimsday2details/n17.png,stimsday2details/ct17.png,stimsday2details/t17.png,0,2,2,2,,,,,,,,,0,0,0,0,,,,,,,,,,,,,,,,,,,,,3.0280032280134037,None,330.67132149799727,None,355.6551752189407,None,364.6540017379448,381.6418040760327,381.6541149149416,None,404.6535235149786,None,428.65390104299877,None,,,,,,,,,,,,,,,,,,,,,,,,,,,,,,,,,,,,,,,,,,,,,,,,,,,,,,,,,,,,,,,,,,,,,,,,,,,,,001,24,2019_Oct_31_1333,viewing,3.1.2,60.004179060942064,
north.png,stims/wedding-17.1a.mp4,stims/wedding-17.1b.mp4,stims/wedding-17.2a.mp4,stims/wedding-17.3a.mp4,stims/wedding-17.4a.mp4,stims/wedding-17.5.mp4,stimsday2details/newegg14.png,stimsday2details/egg17.png,stimsday2details/newperson27.png,stimsday2details/couple17.png,stimsday2details/new27.png,stimsday2details/gift17.png,stimsday2details/cn17.png,stimsday2details/n17.png,stimsday2details/ct17.png,stimsday2details/t17.png,0,2,2,2,,,,,,,,,,,,,0,0,0,0,,,,,,,,,,,,,,,,,,,,,,,,,,,,,,,None,None,None,None,None,None,None,None,None,None,None,None,None,None,None,None,None,None,None,,None,None,None,,None,None,,,,,,,,,,,,,,,,,,,,,,,,,,,,,,,,,,,,,,,,,,,,,,,,,,,001,24,2019_Oct_31_1333,viewing,3.1.2,60.004179060942064,
north.png,stims/wedding-17.1a.mp4,stims/wedding-17.1b.mp4,stims/wedding-17.2a.mp4,stims/wedding-17.3a.mp4,stims/wedding-17.4a.mp4,stims/wedding-17.5.mp4,stimsday2details/newegg14.png,stimsday2details/egg17.png,stimsday2details/newperson27.png,stimsday2details/couple17.png,stimsday2details/new27.png,stimsday2details/gift17.png,stimsday2details/cn17.png,stimsday2details/n17.png,stimsday2details/ct17.png,stimsday2details/t17.png,0,2,2,2,,,,,,,,,,,,,,,,,,,,,,,,,,,,,,,,,,,,,,,,,,,,,,,,,,,,,,,,,,,,,,,,,,,,,,,,,3.597897011786699e-05,None,2,1.2282084570033476,452.23685743194073,None,452.23685743194073,None,452.23685743194073,None,454.2254508360056,None,2,0.8007994769141078,454.2254508360056,None,454.2254508360056,None,456.22527330194134,None,456.22527330194134,None,2,0.8186004810268059,456.22527330194134,None,2,0.9474299750290811,458.2291164549533,None,458.2291164549533,None,458.2291164549533,None,460.219814829994,None,460.219814829994,None,2,0.9029197370400652,460.219814829994,None,462.2199533439707,None,462.2199533439707,None,1,0.6517829779768363,462.2199533439707,None,001,24,2019_Oct_31_1333,viewing,3.1.2,60.004179060942064,
south.png,stims/wedding-34.1a.mp4,stims/wedding-34.1b.mp4,stims/wedding-34.2a.mp4,stims/wedding-34.3b.mp4,stims/wedding-34.4a.mp4,stims/wedding-34.5.mp4,stimsday2details/newegg15.png,stimsday2details/egg34.png,stimsday2details/couple34.png,stimsday2details/newperson28.png,stimsday2details/new28.png,stimsday2details/gift34.png,stimsday2details/n34.png,stimsday2details/cn34.png,stimsday2details/ct34.png,stimsday2details/t34.png,0,3,3,3,0,0,0,0,,,,,,,,,,,,,,,,,,,,,,,,,464.2194524590159,None,,,,,,,,,,,,,,,,,,,,,,,,,,,,,,,,,,,,,,,,,,,,,,,,,,,,,,,,,,,,,,,,,,,,,,,,,,,,,,,,,,,,,,,,,,,,,001,24,2019_Oct_31_1333,viewing,3.1.2,60.004179060942064,
south.png,stims/wedding-34.1a.mp4,stims/wedding-34.1b.mp4,stims/wedding-34.2a.mp4,stims/wedding-34.3b.mp4,stims/wedding-34.4a.mp4,stims/wedding-34.5.mp4,stimsday2details/newegg15.png,stimsday2details/egg34.png,stimsday2details/couple34.png,stimsday2details/newperson28.png,stimsday2details/new28.png,stimsday2details/gift34.png,stimsday2details/n34.png,stimsday2details/cn34.png,stimsday2details/ct34.png,stimsday2details/t34.png,0,3,3,3,,,,,0,0,0,0,,,,,,,,,,,,,,,,,,,,,,,None,None,,,,,,,,,,,,,,,,,,,,,,,,,,,,,,,,,,,,,,,,,,,,,,,,,,,,,,,,,,,,,,,,,,,,,,,,,,,,,,,,,,,,,,,,,,,001,24,2019_Oct_31_1333,viewing,3.1.2,60.004179060942064,
south.png,stims/wedding-34.1a.mp4,stims/wedding-34.1b.mp4,stims/wedding-34.2a.mp4,stims/wedding-34.3b.mp4,stims/wedding-34.4a.mp4,stims/wedding-34.5.mp4,stimsday2details/newegg15.png,stimsday2details/egg34.png,stimsday2details/couple34.png,stimsday2details/newperson28.png,stimsday2details/new28.png,stimsday2details/gift34.png,stimsday2details/n34.png,stimsday2details/cn34.png,stimsday2details/ct34.png,stimsday2details/t34.png,0,3,3,3,,,,,,,,,0,0,0,0,,,,,,,,,,,,,,,,,,,,,3.160679825930856,None,474.5537395440042,499.40651440795045,499.4192414350109,508.40716474095825,508.4199000840308,None,525.4197278600186,548.405417685979,548.405417685979,572.4017899100436,572.4188166989479,None,,,,,,,,,,,,,,,,,,,,,,,,,,,,,,,,,,,,,,,,,,,,,,,,,,,,,,,,,,,,,,,,,,,,,,,,,,,,,001,24,2019_Oct_31_1333,viewing,3.1.2,60.004179060942064,
south.png,stims/wedding-34.1a.mp4,stims/wedding-34.1b.mp4,stims/wedding-34.2a.mp4,stims/wedding-34.3b.mp4,stims/wedding-34.4a.mp4,stims/wedding-34.5.mp4,stimsday2details/newegg15.png,stimsday2details/egg34.png,stimsday2details/couple34.png,stimsday2details/newperson28.png,stimsday2details/new28.png,stimsday2details/gift34.png,stimsday2details/n34.png,stimsday2details/cn34.png,stimsday2details/ct34.png,stimsday2details/t34.png,0,3,3,3,,,,,,,,,,,,,0,0,0,0,,,,,,,,,,,,,,,,,,,,,,,,,,,,,,,None,None,None,None,None,None,None,None,None,None,None,None,None,None,None,None,None,None,None,,None,None,None,,None,None,,,,,,,,,,,,,,,,,,,,,,,,,,,,,,,,,,,,,,,,,,,,,,,,,,,001,24,2019_Oct_31_1333,viewing,3.1.2,60.004179060942064,
south.png,stims/wedding-34.1a.mp4,stims/wedding-34.1b.mp4,stims/wedding-34.2a.mp4,stims/wedding-34.3b.mp4,stims/wedding-34.4a.mp4,stims/wedding-34.5.mp4,stimsday2details/newegg15.png,stimsday2details/egg34.png,stimsday2details/couple34.png,stimsday2details/newperson28.png,stimsday2details/new28.png,stimsday2details/gift34.png,stimsday2details/n34.png,stimsday2details/cn34.png,stimsday2details/ct34.png,stimsday2details/t34.png,0,3,3,3,,,,,,,,,,,,,,,,,,,,,,,,,,,,,,,,,,,,,,,,,,,,,,,,,,,,,,,,,,,,,,,,,,,,,,,,,4.395795986056328e-05,None,1,1.0689792779739946,595.8689268459566,None,595.8689268459566,None,595.8689268459566,None,597.8682127830107,None,2,0.8069869189057499,597.8682127830107,None,597.8682127830107,None,599.8728347889846,None,599.8728347889846,None,1,0.6511231309268624,599.8728347889846,None,2,0.8310915949987248,601.8729452450061,None,601.8729452450061,None,601.8729452450061,None,603.8720441319747,None,603.8720441319747,None,2,0.6819039030233398,603.8720441319747,None,605.872098532971,None,605.872098532971,None,1,0.8532662410289049,605.872098532971,None,001,24,2019_Oct_31_1333,viewing,3.1.2,60.004179060942064,
south.png,stims/wedding-2.1a.mp4,stims/wedding-2.1b.mp4,stims/wedding-2.2a.mp4,stims/wedding-2.3b.mp4,stims/wedding-2.4a.mp4,stims/wedding-2.5.mp4,stimsday2details/egg2.png,stimsday2details/newegg16.png,stimsday2details/newperson29.png,stimsday2details/couple2.png,stimsday2details/new29.png,stimsday2details/gift2.png,stimsday2details/n2.png,stimsday2details/cn2.png,stimsday2details/t2.png,stimsday2details/ct2.png,0,4,4,4,0,0,0,0,,,,,,,,,,,,,,,,,,,,,,,,,607.8730159209808,None,,,,,,,,,,,,,,,,,,,,,,,,,,,,,,,,,,,,,,,,,,,,,,,,,,,,,,,,,,,,,,,,,,,,,,,,,,,,,,,,,,,,,,,,,,,,,001,24,2019_Oct_31_1333,viewing,3.1.2,60.004179060942064,
south.png,stims/wedding-2.1a.mp4,stims/wedding-2.1b.mp4,stims/wedding-2.2a.mp4,stims/wedding-2.3b.mp4,stims/wedding-2.4a.mp4,stims/wedding-2.5.mp4,stimsday2details/egg2.png,stimsday2details/newegg16.png,stimsday2details/newperson29.png,stimsday2details/couple2.png,stimsday2details/new29.png,stimsday2details/gift2.png,stimsday2details/n2.png,stimsday2details/cn2.png,stimsday2details/t2.png,stimsday2details/ct2.png,0,4,4,4,,,,,0,0,0,0,,,,,,,,,,,,,,,,,,,,,,,None,None,,,,,,,,,,,,,,,,,,,,,,,,,,,,,,,,,,,,,,,,,,,,,,,,,,,,,,,,,,,,,,,,,,,,,,,,,,,,,,,,,,,,,,,,,,,001,24,2019_Oct_31_1333,viewing,3.1.2,60.004179060942064,
south.png,stims/wedding-2.1a.mp4,stims/wedding-2.1b.mp4,stims/wedding-2.2a.mp4,stims/wedding-2.3b.mp4,stims/wedding-2.4a.mp4,stims/wedding-2.5.mp4,stimsday2details/egg2.png,stimsday2details/newegg16.png,stimsday2details/newperson29.png,stimsday2details/couple2.png,stimsday2details/new29.png,stimsday2details/gift2.png,stimsday2details/n2.png,stimsday2details/cn2.png,stimsday2details/t2.png,stimsday2details/ct2.png,0,4,4,4,,,,,,,,,0,0,0,0,,,,,,,,,,,,,,,,,,,,,2.941887742956169,None,618.0341208330356,None,643.1184067829745,None,652.1178322460037,None,669.1170250569703,692.1043806009693,692.1177821690217,None,716.1164666259428,None,,,,,,,,,,,,,,,,,,,,,,,,,,,,,,,,,,,,,,,,,,,,,,,,,,,,,,,,,,,,,,,,,,,,,,,,,,,,,001,24,2019_Oct_31_1333,viewing,3.1.2,60.004179060942064,
south.png,stims/wedding-2.1a.mp4,stims/wedding-2.1b.mp4,stims/wedding-2.2a.mp4,stims/wedding-2.3b.mp4,stims/wedding-2.4a.mp4,stims/wedding-2.5.mp4,stimsday2details/egg2.png,stimsday2details/newegg16.png,stimsday2details/newperson29.png,stimsday2details/couple2.png,stimsday2details/new29.png,stimsday2details/gift2.png,stimsday2details/n2.png,stimsday2details/cn2.png,stimsday2details/t2.png,stimsday2details/ct2.png,0,4,4,4,,,,,,,,,,,,,0,0,0,0,,,,,,,,,,,,,,,,,,,,,,,,,,,,,,,None,None,None,None,None,None,None,None,None,None,None,None,None,None,None,None,None,None,None,,None,None,None,,None,None,,,,,,,,,,,,,,,,,,,,,,,,,,,,,,,,,,,,,,,,,,,,,,,,,,,001,24,2019_Oct_31_1333,viewing,3.1.2,60.004179060942064,
south.png,stims/wedding-2.1a.mp4,stims/wedding-2.1b.mp4,stims/wedding-2.2a.mp4,stims/wedding-2.3b.mp4,stims/wedding-2.4a.mp4,stims/wedding-2.5.mp4,stimsday2details/egg2.png,stimsday2details/newegg16.png,stimsday2details/newperson29.png,stimsday2details/couple2.png,stimsday2details/new29.png,stimsday2details/gift2.png,stimsday2details/n2.png,stimsday2details/cn2.png,stimsday2details/t2.png,stimsday2details/ct2.png,0,4,4,4,,,,,,,,,,,,,,,,,,,,,,,,,,,,,,,,,,,,,,,,,,,,,,,,,,,,,,,,,,,,,,,,,,,,,,,,,3.622099757194519e-05,None,1,1.001921576098539,739.8336301320232,None,739.8336301320232,None,739.8336301320232,None,741.8168713459745,None,1,0.9510324589209631,741.8168713459745,None,741.8168713459745,None,743.816099721007,None,743.816099721007,None,2,0.8018153080483899,743.816099721007,None,1,1.2411558770108968,745.8164056789828,None,745.8164056789828,None,745.8164056789828,None,747.8172756090062,None,747.8172756090062,None,2,0.7173828199738637,747.8172756090062,None,749.8160387759563,None,749.8160387759563,None,1,1.3167751429136842,749.8160387759563,None,001,24,2019_Oct_31_1333,viewing,3.1.2,60.004179060942064,
north.png,stims/wedding-23.1a.mp4,stims/wedding-23.1b.mp4,stims/wedding-23.2a.mp4,stims/wedding-23.3a.mp4,stims/wedding-23.4a.mp4,stims/wedding-23.5.mp4,stimsday2details/newegg17.png,stimsday2details/egg23.png,stimsday2details/newperson30.png,stimsday2details/couple23.png,stimsday2details/gift23.png,stimsday2details/new30.png,stimsday2details/n23.png,stimsday2details/cn23.png,stimsday2details/ct23.png,stimsday2details/t23.png,0,5,5,5,0,0,0,0,,,,,,,,,,,,,,,,,,,,,,,,,None,None,,,,,,,,,,,,,,,,,,,,,,,,,,,,,,,,,,,,,,,,,,,,,,,,,,,,,,,,,,,,,,,,,,,,,,,,,,,,,,,,,,,,,,,,,,,,,001,24,2019_Oct_31_1333,viewing,3.1.2,60.004179060942064,
north.png,stims/wedding-23.1a.mp4,stims/wedding-23.1b.mp4,stims/wedding-23.2a.mp4,stims/wedding-23.3a.mp4,stims/wedding-23.4a.mp4,stims/wedding-23.5.mp4,stimsday2details/newegg17.png,stimsday2details/egg23.png,stimsday2details/newperson30.png,stimsday2details/couple23.png,stimsday2details/gift23.png,stimsday2details/new30.png,stimsday2details/n23.png,stimsday2details/cn23.png,stimsday2details/ct23.png,stimsday2details/t23.png,0,5,5,5,,,,,0,0,0,0,,,,,,,,,,,,,,,,,,,,,,,751.9493811089778,None,,,,,,,,,,,,,,,,,,,,,,,,,,,,,,,,,,,,,,,,,,,,,,,,,,,,,,,,,,,,,,,,,,,,,,,,,,,,,,,,,,,,,,,,,,,001,24,2019_Oct_31_1333,viewing,3.1.2,60.004179060942064,
north.png,stims/wedding-23.1a.mp4,stims/wedding-23.1b.mp4,stims/wedding-23.2a.mp4,stims/wedding-23.3a.mp4,stims/wedding-23.4a.mp4,stims/wedding-23.5.mp4,stimsday2details/newegg17.png,stimsday2details/egg23.png,stimsday2details/newperson30.png,stimsday2details/couple23.png,stimsday2details/gift23.png,stimsday2details/new30.png,stimsday2details/n23.png,stimsday2details/cn23.png,stimsday2details/ct23.png,stimsday2details/t23.png,0,5,5,5,,,,,,,,,0,0,0,0,,,,,,,,,,,,,,,,,,,,,3.005257111042738,None,762.0989971599774,787.0833248839481,787.0990941110067,None,796.0992260309868,813.0842588050291,813.1014857840491,836.0824512370164,836.0989857550012,860.0988489269512,860.0988489269512,None,,,,,,,,,,,,,,,,,,,,,,,,,,,,,,,,,,,,,,,,,,,,,,,,,,,,,,,,,,,,,,,,,,,,,,,,,,,,,001,24,2019_Oct_31_1333,viewing,3.1.2,60.004179060942064,
north.png,stims/wedding-23.1a.mp4,stims/wedding-23.1b.mp4,stims/wedding-23.2a.mp4,stims/wedding-23.3a.mp4,stims/wedding-23.4a.mp4,stims/wedding-23.5.mp4,stimsday2details/newegg17.png,stimsday2details/egg23.png,stimsday2details/newperson30.png,stimsday2details/couple23.png,stimsday2details/gift23.png,stimsday2details/new30.png,stimsday2details/n23.png,stimsday2details/cn23.png,stimsday2details/ct23.png,stimsday2details/t23.png,0,5,5,5,,,,,,,,,,,,,0,0,0,0,,,,,,,,,,,,,,,,,,,,,,,,,,,,,,,None,None,None,None,None,None,None,None,None,None,None,None,None,None,None,None,None,None,None,,None,None,None,,None,None,,,,,,,,,,,,,,,,,,,,,,,,,,,,,,,,,,,,,,,,,,,,,,,,,,,001,24,2019_Oct_31_1333,viewing,3.1.2,60.004179060942064,
north.png,stims/wedding-23.1a.mp4,stims/wedding-23.1b.mp4,stims/wedding-23.2a.mp4,stims/wedding-23.3a.mp4,stims/wedding-23.4a.mp4,stims/wedding-23.5.mp4,stimsday2details/newegg17.png,stimsday2details/egg23.png,stimsday2details/newperson30.png,stimsday2details/couple23.png,stimsday2details/gift23.png,stimsday2details/new30.png,stimsday2details/n23.png,stimsday2details/cn23.png,stimsday2details/ct23.png,stimsday2details/t23.png,0,5,5,5,,,,,,,,,,,,,,,,,,,,,,,,,,,,,,,,,,,,,,,,,,,,,,,,,,,,,,,,,,,,,,,,,,,,,,,,,4.731607623398304e-05,None,1,1.4360328250331804,884.347577546956,None,884.347577546956,None,884.347577546956,None,886.3485279700253,None,2,0.8720689360052347,886.3485279700253,None,886.3485279700253,None,888.3518197369995,None,888.3518197369995,None,2,0.7695843260735273,888.3518197369995,None,2,1.2525968280388042,890.3474530120147,None,890.3474530120147,None,890.3474530120147,None,892.3473211149685,None,892.3473211149685,None,1,0.7235959270037711,892.3473211149685,None,894.3485944960266,None,894.3485944960266,None,1,0.8394013330107555,894.3485944960266,None,001,24,2019_Oct_31_1333,viewing,3.1.2,60.004179060942064,
north.png,stims/wedding-1.1a.mp4,stims/wedding-1.1b.mp4,stims/wedding-1.2b.mp4,stims/wedding-1.3b.mp4,stims/wedding-1.4b.mp4,stims/wedding-1.5.mp4,stimsday2details/newpainting14.png,stimsday2details/painting1.png,stimsday2details/newperson31.png,stimsday2details/couple1.png,stimsday2details/new31.png,stimsday2details/gift1.png,stimsday2details/n1.png,stimsday2details/cn1.png,stimsday2details/t1.png,stimsday2details/ct1.png,0,6,6,6,0,0,0,0,,,,,,,,,,,,,,,,,,,,,,,,,None,None,,,,,,,,,,,,,,,,,,,,,,,,,,,,,,,,,,,,,,,,,,,,,,,,,,,,,,,,,,,,,,,,,,,,,,,,,,,,,,,,,,,,,,,,,,,,,001,24,2019_Oct_31_1333,viewing,3.1.2,60.004179060942064,
north.png,stims/wedding-1.1a.mp4,stims/wedding-1.1b.mp4,stims/wedding-1.2b.mp4,stims/wedding-1.3b.mp4,stims/wedding-1.4b.mp4,stims/wedding-1.5.mp4,stimsday2details/newpainting14.png,stimsday2details/painting1.png,stimsday2details/newperson31.png,stimsday2details/couple1.png,stimsday2details/new31.png,stimsday2details/gift1.png,stimsday2details/n1.png,stimsday2details/cn1.png,stimsday2details/t1.png,stimsday2details/ct1.png,0,6,6,6,,,,,0,0,0,0,,,,,,,,,,,,,,,,,,,,,,,896.514213870978,None,,,,,,,,,,,,,,,,,,,,,,,,,,,,,,,,,,,,,,,,,,,,,,,,,,,,,,,,,,,,,,,,,,,,,,,,,,,,,,,,,,,,,,,,,,,001,24,2019_Oct_31_1333,viewing,3.1.2,60.004179060942064,
north.png,stims/wedding-1.1a.mp4,stims/wedding-1.1b.mp4,stims/wedding-1.2b.mp4,stims/wedding-1.3b.mp4,stims/wedding-1.4b.mp4,stims/wedding-1.5.mp4,stimsday2details/newpainting14.png,stimsday2details/painting1.png,stimsday2details/newperson31.png,stimsday2details/couple1.png,stimsday2details/new31.png,stimsday2details/gift1.png,stimsday2details/n1.png,stimsday2details/cn1.png,stimsday2details/t1.png,stimsday2details/ct1.png,0,6,6,6,,,,,,,,,0,0,0,0,,,,,,,,,,,,,,,,,,,,,3.0391787129919976,None,906.7145803970052,931.6822035319638,931.6822035319638,None,940.6803345240187,None,957.6812078659423,980.6795564140193,980.6795564140193,1004.6797505780123,1004.6797505780123,None,,,,,,,,,,,,,,,,,,,,,,,,,,,,,,,,,,,,,,,,,,,,,,,,,,,,,,,,,,,,,,,,,,,,,,,,,,,,,001,24,2019_Oct_31_1333,viewing,3.1.2,60.004179060942064,
north.png,stims/wedding-1.1a.mp4,stims/wedding-1.1b.mp4,stims/wedding-1.2b.mp4,stims/wedding-1.3b.mp4,stims/wedding-1.4b.mp4,stims/wedding-1.5.mp4,stimsday2details/newpainting14.png,stimsday2details/painting1.png,stimsday2details/newperson31.png,stimsday2details/couple1.png,stimsday2details/new31.png,stimsday2details/gift1.png,stimsday2details/n1.png,stimsday2details/cn1.png,stimsday2details/t1.png,stimsday2details/ct1.png,0,6,6,6,,,,,,,,,,,,,0,0,0,0,,,,,,,,,,,,,,,,,,,,,,,,,,,,,,,None,None,None,None,None,None,None,None,None,None,None,None,None,None,None,None,None,None,None,,None,None,None,,None,None,,,,,,,,,,,,,,,,,,,,,,,,,,,,,,,,,,,,,,,,,,,,,,,,,,,001,24,2019_Oct_31_1333,viewing,3.1.2,60.004179060942064,
north.png,stims/wedding-1.1a.mp4,stims/wedding-1.1b.mp4,stims/wedding-1.2b.mp4,stims/wedding-1.3b.mp4,stims/wedding-1.4b.mp4,stims/wedding-1.5.mp4,stimsday2details/newpainting14.png,stimsday2details/painting1.png,stimsday2details/newperson31.png,stimsday2details/couple1.png,stimsday2details/new31.png,stimsday2details/gift1.png,stimsday2details/n1.png,stimsday2details/cn1.png,stimsday2details/t1.png,stimsday2details/ct1.png,0,6,6,6,,,,,,,,,,,,,,,,,,,,,,,,,,,,,,,,,,,,,,,,,,,,,,,,,,,,,,,,,,,,,,,,,,,,,,,,,3.6285025998950005e-05,None,1,0.7673079889500514,1028.546780138975,None,1028.546780138975,None,1028.546780138975,None,1030.5468968680361,None,2,0.8054108739597723,1030.5468968680361,None,1030.5468968680361,None,1032.546621499001,None,1032.546621499001,None,2,0.9395697430009022,1032.546621499001,None,1,1.0014295959845185,1034.5506398379803,None,1034.5506398379803,None,1034.5506398379803,None,1036.5497501490172,None,1036.5497501490172,None,2,0.8027024620678276,1036.5497501490172,None,1038.5457578200148,None,1038.5457578200148,None,2,1.1527816579909995,1038.5457578200148,None,001,24,2019_Oct_31_1333,viewing,3.1.2,60.004179060942064,
south.png,stims/wedding-38.1a.mp4,stims/wedding-38.1b.mp4,stims/wedding-38.2b.mp4,stims/wedding-38.3a.mp4,stims/wedding-38.4b.mp4,stims/wedding-38.5.mp4,stimsday2details/painting38.png,stimsday2details/newpainting15.png,stimsday2details/couple38.png,stimsday2details/newperson32.png,stimsday2details/gift38.png,stimsday2details/new32.png,stimsday2details/n38.png,stimsday2details/cn38.png,stimsday2details/ct38.png,stimsday2details/t38.png,0,7,7,7,0,0,0,0,,,,,,,,,,,,,,,,,,,,,,,,,1040.5458820529748,None,,,,,,,,,,,,,,,,,,,,,,,,,,,,,,,,,,,,,,,,,,,,,,,,,,,,,,,,,,,,,,,,,,,,,,,,,,,,,,,,,,,,,,,,,,,,,001,24,2019_Oct_31_1333,viewing,3.1.2,60.004179060942064,
south.png,stims/wedding-38.1a.mp4,stims/wedding-38.1b.mp4,stims/wedding-38.2b.mp4,stims/wedding-38.3a.mp4,stims/wedding-38.4b.mp4,stims/wedding-38.5.mp4,stimsday2details/painting38.png,stimsday2details/newpainting15.png,stimsday2details/couple38.png,stimsday2details/newperson32.png,stimsday2details/gift38.png,stimsday2details/new32.png,stimsday2details/n38.png,stimsday2details/cn38.png,stimsday2details/ct38.png,stimsday2details/t38.png,0,7,7,7,,,,,0,0,0,0,,,,,,,,,,,,,,,,,,,,,,,None,None,,,,,,,,,,,,,,,,,,,,,,,,,,,,,,,,,,,,,,,,,,,,,,,,,,,,,,,,,,,,,,,,,,,,,,,,,,,,,,,,,,,,,,,,,,,001,24,2019_Oct_31_1333,viewing,3.1.2,60.004179060942064,
south.png,stims/wedding-38.1a.mp4,stims/wedding-38.1b.mp4,stims/wedding-38.2b.mp4,stims/wedding-38.3a.mp4,stims/wedding-38.4b.mp4,stims/wedding-38.5.mp4,stimsday2details/painting38.png,stimsday2details/newpainting15.png,stimsday2details/couple38.png,stimsday2details/newperson32.png,stimsday2details/gift38.png,stimsday2details/new32.png,stimsday2details/n38.png,stimsday2details/cn38.png,stimsday2details/ct38.png,stimsday2details/t38.png,0,7,7,7,,,,,,,,,0,0,0,0,,,,,,,,,,,,,,,,,,,,,2.8551259920932353,None,1050.76272930298,1075.9128432309953,1075.9128432309953,None,1084.9293828109512,None,1101.9282435199711,1124.9132264340296,1124.9295787969604,None,1148.9281757100252,None,,,,,,,,,,,,,,,,,,,,,,,,,,,,,,,,,,,,,,,,,,,,,,,,,,,,,,,,,,,,,,,,,,,,,,,,,,,,,001,24,2019_Oct_31_1333,viewing,3.1.2,60.004179060942064,
south.png,stims/wedding-38.1a.mp4,stims/wedding-38.1b.mp4,stims/wedding-38.2b.mp4,stims/wedding-38.3a.mp4,stims/wedding-38.4b.mp4,stims/wedding-38.5.mp4,stimsday2details/painting38.png,stimsday2details/newpainting15.png,stimsday2details/couple38.png,stimsday2details/newperson32.png,stimsday2details/gift38.png,stimsday2details/new32.png,stimsday2details/n38.png,stimsday2details/cn38.png,stimsday2details/ct38.png,stimsday2details/t38.png,0,7,7,7,,,,,,,,,,,,,0,0,0,0,,,,,,,,,,,,,,,,,,,,,,,,,,,,,,,None,None,None,None,None,None,None,None,None,None,None,None,None,None,None,None,None,None,None,,None,None,None,,None,None,,,,,,,,,,,,,,,,,,,,,,,,,,,,,,,,,,,,,,,,,,,,,,,,,,,001,24,2019_Oct_31_1333,viewing,3.1.2,60.004179060942064,
south.png,stims/wedding-38.1a.mp4,stims/wedding-38.1b.mp4,stims/wedding-38.2b.mp4,stims/wedding-38.3a.mp4,stims/wedding-38.4b.mp4,stims/wedding-38.5.mp4,stimsday2details/painting38.png,stimsday2details/newpainting15.png,stimsday2details/couple38.png,stimsday2details/newperson32.png,stimsday2details/gift38.png,stimsday2details/new32.png,stimsday2details/n38.png,stimsday2details/cn38.png,stimsday2details/ct38.png,stimsday2details/t38.png,0,7,7,7,,,,,,,,,,,,,,,,,,,,,,,,,,,,,,,,,,,,,,,,,,,,,,,,,,,,,,,,,,,,,,,,,,,,,,,,,3.723392728716135e-05,None,1,1.0370202689664438,1172.7800437050173,None,1172.7800437050173,None,1172.7800437050173,None,1174.781879607006,None,1,1.513584534986876,1174.781879607006,None,1174.781879607006,None,1176.7770765690366,None,1176.7770765690366,None,1,1.3738851230591536,1176.7770765690366,None,2,1.2367817069170997,1178.7770435339771,None,1178.7770435339771,None,1178.7770435339771,None,1180.7770159799838,None,1180.7770159799838,None,1,0.8022845289669931,1180.7770159799838,None,1182.7771036239574,None,1182.7771036239574,None,2,0.8234995940001681,1182.7771036239574,None,001,24,2019_Oct_31_1333,viewing,3.1.2,60.004179060942064,
south.png,stims/wedding-6.1a.mp4,stims/wedding-6.1b.mp4,stims/wedding-6.2b.mp4,stims/wedding-6.3a.mp4,stims/wedding-6.4b.mp4,stims/wedding-6.5.mp4,stimsday2details/newpainting16.png,stimsday2details/painting6.png,stimsday2details/newperson33.png,stimsday2details/couple6.png,stimsday2details/gift6.png,stimsday2details/new33.png,stimsday2details/cn6.png,stimsday2details/n6.png,stimsday2details/ct6.png,stimsday2details/t6.png,0,8,8,8,0,0,0,0,,,,,,,,,,,,,,,,,,,,,,,,,1184.7778508319752,None,,,,,,,,,,,,,,,,,,,,,,,,,,,,,,,,,,,,,,,,,,,,,,,,,,,,,,,,,,,,,,,,,,,,,,,,,,,,,,,,,,,,,,,,,,,,,001,24,2019_Oct_31_1333,viewing,3.1.2,60.004179060942064,
south.png,stims/wedding-6.1a.mp4,stims/wedding-6.1b.mp4,stims/wedding-6.2b.mp4,stims/wedding-6.3a.mp4,stims/wedding-6.4b.mp4,stims/wedding-6.5.mp4,stimsday2details/newpainting16.png,stimsday2details/painting6.png,stimsday2details/newperson33.png,stimsday2details/couple6.png,stimsday2details/gift6.png,stimsday2details/new33.png,stimsday2details/cn6.png,stimsday2details/n6.png,stimsday2details/ct6.png,stimsday2details/t6.png,0,8,8,8,,,,,0,0,0,0,,,,,,,,,,,,,,,,,,,,,,,None,None,,,,,,,,,,,,,,,,,,,,,,,,,,,,,,,,,,,,,,,,,,,,,,,,,,,,,,,,,,,,,,,,,,,,,,,,,,,,,,,,,,,,,,,,,,,001,24,2019_Oct_31_1333,viewing,3.1.2,60.004179060942064,
south.png,stims/wedding-6.1a.mp4,stims/wedding-6.1b.mp4,stims/wedding-6.2b.mp4,stims/wedding-6.3a.mp4,stims/wedding-6.4b.mp4,stims/wedding-6.5.mp4,stimsday2details/newpainting16.png,stimsday2details/painting6.png,stimsday2details/newperson33.png,stimsday2details/couple6.png,stimsday2details/gift6.png,stimsday2details/new33.png,stimsday2details/cn6.png,stimsday2details/n6.png,stimsday2details/ct6.png,stimsday2details/t6.png,0,8,8,8,,,,,,,,,0,0,0,0,,,,,,,,,,,,,,,,,,,,,2.8315593590959907,None,1195.0107228209963,1220.181468160008,1220.193930506939,None,1229.1937580630183,None,1246.1939599580364,1269.1771297060186,1269.1936983769992,None,1293.1925763910403,None,,,,,,,,,,,,,,,,,,,,,,,,,,,,,,,,,,,,,,,,,,,,,,,,,,,,,,,,,,,,,,,,,,,,,,,,,,,,,001,24,2019_Oct_31_1333,viewing,3.1.2,60.004179060942064,
south.png,stims/wedding-6.1a.mp4,stims/wedding-6.1b.mp4,stims/wedding-6.2b.mp4,stims/wedding-6.3a.mp4,stims/wedding-6.4b.mp4,stims/wedding-6.5.mp4,stimsday2details/newpainting16.png,stimsday2details/painting6.png,stimsday2details/newperson33.png,stimsday2details/couple6.png,stimsday2details/gift6.png,stimsday2details/new33.png,stimsday2details/cn6.png,stimsday2details/n6.png,stimsday2details/ct6.png,stimsday2details/t6.png,0,8,8,8,,,,,,,,,,,,,0,0,0,0,,,,,,,,,,,,,,,,,,,,,,,,,,,,,,,None,None,None,None,None,None,None,None,None,None,None,None,None,None,None,None,None,None,None,,None,None,None,,None,None,,,,,,,,,,,,,,,,,,,,,,,,,,,,,,,,,,,,,,,,,,,,,,,,,,,001,24,2019_Oct_31_1333,viewing,3.1.2,60.004179060942064,
south.png,stims/wedding-6.1a.mp4,stims/wedding-6.1b.mp4,stims/wedding-6.2b.mp4,stims/wedding-6.3a.mp4,stims/wedding-6.4b.mp4,stims/wedding-6.5.mp4,stimsday2details/newpainting16.png,stimsday2details/painting6.png,stimsday2details/newperson33.png,stimsday2details/couple6.png,stimsday2details/gift6.png,stimsday2details/new33.png,stimsday2details/cn6.png,stimsday2details/n6.png,stimsday2details/ct6.png,stimsday2details/t6.png,0,8,8,8,,,,,,,,,,,,,,,,,,,,,,,,,,,,,,,,,,,,,,,,,,,,,,,,,,,,,,,,,,,,,,,,,,,,,,,,,3.9714970625936985e-05,None,2,0.9866855649743229,1317.1257507520495,None,1317.1257507520495,None,1317.1257507520495,None,1319.1100892060203,None,2,0.6184055110206828,1319.1100892060203,None,1319.1100892060203,None,1321.10914912296,None,1321.10914912296,None,2,0.6227280700113624,1321.10914912296,None,2,0.9062286720145494,1323.109912162996,None,1323.109912162996,None,1323.109912162996,None,1325.1090616519796,None,1325.1090616519796,None,1,0.7390115869930014,1325.1090616519796,None,1327.1086364119546,None,1327.1086364119546,None,2,0.889771863934584,1327.1086364119546,None,001,24,2019_Oct_31_1333,viewing,3.1.2,60.004179060942064,
north.png,stims/wedding-28.1a.mp4,stims/wedding-28.1b.mp4,stims/wedding-28.2a.mp4,stims/wedding-28.3a.mp4,stims/wedding-28.4a.mp4,stims/wedding-28.5.mp4,stimsday2details/egg28.png,stimsday2details/newegg18.png,stimsday2details/newperson34.png,stimsday2details/couple28.png,stimsday2details/new34.png,stimsday2details/gift28.png,stimsday2details/n28.png,stimsday2details/cn28.png,stimsday2details/ct28.png,stimsday2details/t28.png,0,9,9,9,0,0,0,0,,,,,,,,,,,,,,,,,,,,,,,,,None,None,,,,,,,,,,,,,,,,,,,,,,,,,,,,,,,,,,,,,,,,,,,,,,,,,,,,,,,,,,,,,,,,,,,,,,,,,,,,,,,,,,,,,,,,,,,,,001,24,2019_Oct_31_1333,viewing,3.1.2,60.004179060942064,
north.png,stims/wedding-28.1a.mp4,stims/wedding-28.1b.mp4,stims/wedding-28.2a.mp4,stims/wedding-28.3a.mp4,stims/wedding-28.4a.mp4,stims/wedding-28.5.mp4,stimsday2details/egg28.png,stimsday2details/newegg18.png,stimsday2details/newperson34.png,stimsday2details/couple28.png,stimsday2details/new34.png,stimsday2details/gift28.png,stimsday2details/n28.png,stimsday2details/cn28.png,stimsday2details/ct28.png,stimsday2details/t28.png,0,9,9,9,,,,,0,0,0,0,,,,,,,,,,,,,,,,,,,,,,,1329.325521987048,None,,,,,,,,,,,,,,,,,,,,,,,,,,,,,,,,,,,,,,,,,,,,,,,,,,,,,,,,,,,,,,,,,,,,,,,,,,,,,,,,,,,,,,,,,,,001,24,2019_Oct_31_1333,viewing,3.1.2,60.004179060942064,
north.png,stims/wedding-28.1a.mp4,stims/wedding-28.1b.mp4,stims/wedding-28.2a.mp4,stims/wedding-28.3a.mp4,stims/wedding-28.4a.mp4,stims/wedding-28.5.mp4,stimsday2details/egg28.png,stimsday2details/newegg18.png,stimsday2details/newperson34.png,stimsday2details/couple28.png,stimsday2details/new34.png,stimsday2details/gift28.png,stimsday2details/n28.png,stimsday2details/cn28.png,stimsday2details/ct28.png,stimsday2details/t28.png,0,9,9,9,,,,,,,,,0,0,0,0,,,,,,,,,,,,,,,,,,,,,2.8674585679546,None,1339.575447459938,1364.6926832660101,1364.7091537440429,None,1373.7090422370238,1390.7087889229879,1390.7087889229879,1413.711958167958,1413.7255211339798,1437.7120205219835,1437.724636676954,None,,,,,,,,,,,,,,,,,,,,,,,,,,,,,,,,,,,,,,,,,,,,,,,,,,,,,,,,,,,,,,,,,,,,,,,,,,,,,001,24,2019_Oct_31_1333,viewing,3.1.2,60.004179060942064,
north.png,stims/wedding-28.1a.mp4,stims/wedding-28.1b.mp4,stims/wedding-28.2a.mp4,stims/wedding-28.3a.mp4,stims/wedding-28.4a.mp4,stims/wedding-28.5.mp4,stimsday2details/egg28.png,stimsday2details/newegg18.png,stimsday2details/newperson34.png,stimsday2details/couple28.png,stimsday2details/new34.png,stimsday2details/gift28.png,stimsday2details/n28.png,stimsday2details/cn28.png,stimsday2details/ct28.png,stimsday2details/t28.png,0,9,9,9,,,,,,,,,,,,,0,0,0,0,,,,,,,,,,,,,,,,,,,,,,,,,,,,,,,None,None,None,None,None,None,None,None,None,None,None,None,None,None,None,None,None,None,None,,None,None,None,,None,None,,,,,,,,,,,,,,,,,,,,,,,,,,,,,,,,,,,,,,,,,,,,,,,,,,,001,24,2019_Oct_31_1333,viewing,3.1.2,60.004179060942064,
north.png,stims/wedding-28.1a.mp4,stims/wedding-28.1b.mp4,stims/wedding-28.2a.mp4,stims/wedding-28.3a.mp4,stims/wedding-28.4a.mp4,stims/wedding-28.5.mp4,stimsday2details/egg28.png,stimsday2details/newegg18.png,stimsday2details/newperson34.png,stimsday2details/couple28.png,stimsday2details/new34.png,stimsday2details/gift28.png,stimsday2details/n28.png,stimsday2details/cn28.png,stimsday2details/ct28.png,stimsday2details/t28.png,0,9,9,9,,,,,,,,,,,,,,,,,,,,,,,,,,,,,,,,,,,,,,,,,,,,,,,,,,,,,,,,,,,,,,,,,,,,,,,,,3.0398950912058353e-05,None,1,0.6459445729851723,1462.1131425249623,None,1462.1131425249623,None,1462.1131425249623,None,1464.1066814860096,None,1,0.7193203979404643,1464.1066814860096,None,1464.1066814860096,None,1466.1072906820336,None,1466.1072906820336,None,2,0.7399562899954617,1466.1072906820336,None,2,1.038394505972974,1468.095598742948,None,1468.095598742948,None,1468.095598742948,None,1470.095738154021,None,1470.095738154021,None,2,0.8184295289684087,1470.095738154021,None,1472.0904570729472,None,1472.0904570729472,None,1,1.068237226922065,1472.0904570729472,None,001,24,2019_Oct_31_1333,viewing,3.1.2,60.004179060942064,
north.png,stims/wedding-29.1a.mp4,stims/wedding-29.1b.mp4,stims/wedding-29.2b.mp4,stims/wedding-29.3b.mp4,stims/wedding-29.4b.mp4,stims/wedding-29.5.mp4,stimsday2details/newpainting17.png,stimsday2details/painting29.png,stimsday2details/couple29.png,stimsday2details/newperson35.png,stimsday2details/new35.png,stimsday2details/gift29.png,stimsday2details/n29.png,stimsday2details/cn29.png,stimsday2details/t29.png,stimsday2details/ct29.png,0,10,10,10,0,0,0,0,,,,,,,,,,,,,,,,,,,,,,,,,None,None,,,,,,,,,,,,,,,,,,,,,,,,,,,,,,,,,,,,,,,,,,,,,,,,,,,,,,,,,,,,,,,,,,,,,,,,,,,,,,,,,,,,,,,,,,,,,001,24,2019_Oct_31_1333,viewing,3.1.2,60.004179060942064,
north.png,stims/wedding-29.1a.mp4,stims/wedding-29.1b.mp4,stims/wedding-29.2b.mp4,stims/wedding-29.3b.mp4,stims/wedding-29.4b.mp4,stims/wedding-29.5.mp4,stimsday2details/newpainting17.png,stimsday2details/painting29.png,stimsday2details/couple29.png,stimsday2details/newperson35.png,stimsday2details/new35.png,stimsday2details/gift29.png,stimsday2details/n29.png,stimsday2details/cn29.png,stimsday2details/t29.png,stimsday2details/ct29.png,0,10,10,10,,,,,0,0,0,0,,,,,,,,,,,,,,,,,,,,,,,1474.3408844559453,None,,,,,,,,,,,,,,,,,,,,,,,,,,,,,,,,,,,,,,,,,,,,,,,,,,,,,,,,,,,,,,,,,,,,,,,,,,,,,,,,,,,,,,,,,,,001,24,2019_Oct_31_1333,viewing,3.1.2,60.004179060942064,
north.png,stims/wedding-29.1a.mp4,stims/wedding-29.1b.mp4,stims/wedding-29.2b.mp4,stims/wedding-29.3b.mp4,stims/wedding-29.4b.mp4,stims/wedding-29.5.mp4,stimsday2details/newpainting17.png,stimsday2details/painting29.png,stimsday2details/couple29.png,stimsday2details/newperson35.png,stimsday2details/new35.png,stimsday2details/gift29.png,stimsday2details/n29.png,stimsday2details/cn29.png,stimsday2details/t29.png,stimsday2details/ct29.png,0,10,10,10,,,,,,,,,0,0,0,0,,,,,,,,,,,,,,,,,,,,,2.826617831015028,None,1484.4071938500274,1509.5906253480352,1509.5906253480352,None,1518.5904170740396,None,1535.589684527018,1558.5889654830098,1558.5889654830098,None,1582.5902819629991,None,,,,,,,,,,,,,,,,,,,,,,,,,,,,,,,,,,,,,,,,,,,,,,,,,,,,,,,,,,,,,,,,,,,,,,,,,,,,,001,24,2019_Oct_31_1333,viewing,3.1.2,60.004179060942064,
north.png,stims/wedding-29.1a.mp4,stims/wedding-29.1b.mp4,stims/wedding-29.2b.mp4,stims/wedding-29.3b.mp4,stims/wedding-29.4b.mp4,stims/wedding-29.5.mp4,stimsday2details/newpainting17.png,stimsday2details/painting29.png,stimsday2details/couple29.png,stimsday2details/newperson35.png,stimsday2details/new35.png,stimsday2details/gift29.png,stimsday2details/n29.png,stimsday2details/cn29.png,stimsday2details/t29.png,stimsday2details/ct29.png,0,10,10,10,,,,,,,,,,,,,0,0,0,0,,,,,,,,,,,,,,,,,,,,,,,,,,,,,,,None,None,None,None,None,None,None,None,None,None,None,None,None,None,None,None,None,None,None,,None,None,None,,None,None,,,,,,,,,,,,,,,,,,,,,,,,,,,,,,,,,,,,,,,,,,,,,,,,,,,001,24,2019_Oct_31_1333,viewing,3.1.2,60.004179060942064,
north.png,stims/wedding-29.1a.mp4,stims/wedding-29.1b.mp4,stims/wedding-29.2b.mp4,stims/wedding-29.3b.mp4,stims/wedding-29.4b.mp4,stims/wedding-29.5.mp4,stimsday2details/newpainting17.png,stimsday2details/painting29.png,stimsday2details/couple29.png,stimsday2details/newperson35.png,stimsday2details/new35.png,stimsday2details/gift29.png,stimsday2details/n29.png,stimsday2details/cn29.png,stimsday2details/t29.png,stimsday2details/ct29.png,0,10,10,10,,,,,,,,,,,,,,,,,,,,,,,,,,,,,,,,,,,,,,,,,,,,,,,,,,,,,,,,,,,,,,,,,,,,,,,,,3.0961004085838795e-05,None,1,0.4726563539588824,1606.2717619689647,None,1606.2717619689647,None,1606.2717619689647,None,1608.2647276619682,None,2,0.6468726759776473,1608.2647276619682,None,1608.2647276619682,None,1610.2638327450259,None,1610.2638327450259,None,1,0.731725501944311,1610.2638327450259,None,1,1.753019822994247,1612.2589434910333,None,1612.2589434910333,None,1612.2589434910333,None,1614.260120874038,None,1614.260120874038,None,2,1.1141534600174055,1614.260120874038,None,1616.259153779014,None,1616.259153779014,None,1,0.9518091720528901,1616.259153779014,None,001,24,2019_Oct_31_1333,viewing,3.1.2,60.004179060942064,
south.png,stims/wedding-19.1a.mp4,stims/wedding-19.1b.mp4,stims/wedding-19.2b.mp4,stims/wedding-19.3a.mp4,stims/wedding-19.4b.mp4,stims/wedding-19.5.mp4,stimsday2details/painting19.png,stimsday2details/newpainting18.png,stimsday2details/newperson36.png,stimsday2details/couple19.png,stimsday2details/gift19.png,stimsday2details/new36.png,stimsday2details/cn19.png,stimsday2details/n19.png,stimsday2details/ct19.png,stimsday2details/t19.png,0,11,11,11,0,0,0,0,,,,,,,,,,,,,,,,,,,,,,,,,1618.2592573779402,None,,,,,,,,,,,,,,,,,,,,,,,,,,,,,,,,,,,,,,,,,,,,,,,,,,,,,,,,,,,,,,,,,,,,,,,,,,,,,,,,,,,,,,,,,,,,,001,24,2019_Oct_31_1333,viewing,3.1.2,60.004179060942064,
south.png,stims/wedding-19.1a.mp4,stims/wedding-19.1b.mp4,stims/wedding-19.2b.mp4,stims/wedding-19.3a.mp4,stims/wedding-19.4b.mp4,stims/wedding-19.5.mp4,stimsday2details/painting19.png,stimsday2details/newpainting18.png,stimsday2details/newperson36.png,stimsday2details/couple19.png,stimsday2details/gift19.png,stimsday2details/new36.png,stimsday2details/cn19.png,stimsday2details/n19.png,stimsday2details/ct19.png,stimsday2details/t19.png,0,11,11,11,,,,,0,0,0,0,,,,,,,,,,,,,,,,,,,,,,,None,None,,,,,,,,,,,,,,,,,,,,,,,,,,,,,,,,,,,,,,,,,,,,,,,,,,,,,,,,,,,,,,,,,,,,,,,,,,,,,,,,,,,,,,,,,,,001,24,2019_Oct_31_1333,viewing,3.1.2,60.004179060942064,
south.png,stims/wedding-19.1a.mp4,stims/wedding-19.1b.mp4,stims/wedding-19.2b.mp4,stims/wedding-19.3a.mp4,stims/wedding-19.4b.mp4,stims/wedding-19.5.mp4,stimsday2details/painting19.png,stimsday2details/newpainting18.png,stimsday2details/newperson36.png,stimsday2details/couple19.png,stimsday2details/gift19.png,stimsday2details/new36.png,stimsday2details/cn19.png,stimsday2details/n19.png,stimsday2details/ct19.png,stimsday2details/t19.png,0,11,11,11,,,,,,,,,0,0,0,0,,,,,,,,,,,,,,,,,,,,,None,None,None,None,None,None,None,None,None,None,None,None,None,None,,,,,,,,,,,,,,,,,,,,,,,,,,,,,,,,,,,,,,,,,,,,,,,,,,,,,,,,,,,,,,,,,,,,,,,,,,,,,001,24,2019_Oct_31_1333,viewing,3.1.2,60.004179060942064,
south.png,stims/wedding-19.1a.mp4,stims/wedding-19.1b.mp4,stims/wedding-19.2b.mp4,stims/wedding-19.3a.mp4,stims/wedding-19.4b.mp4,stims/wedding-19.5.mp4,stimsday2details/painting19.png,stimsday2details/newpainting18.png,stimsday2details/newperson36.png,stimsday2details/couple19.png,stimsday2details/gift19.png,stimsday2details/new36.png,stimsday2details/cn19.png,stimsday2details/n19.png,stimsday2details/ct19.png,stimsday2details/t19.png,0,11,11,11,,,,,,,,,,,,,0,0,0,0,,,,,,,,,,,,,,,,,,,,,,,,,,,,,,,2.8731122669996694,None,1631.8558522179956,1656.9723172090016,1656.987649766961,None,1665.9875824979972,1682.9746743510477,1682.9883844980504,1686.9758927290095,1686.9885540390387,1709.9712673559552,1709.986926187994,1713.9711778350174,1713.9872941729845,None,1737.9867146729957,None,None,,1681.9887255280046,1686.9758927290095,['2'],[2.6690170210786164],1708.9915803780314,1713.9711778350174,,,,,,,,,,,,,,,,,,,,,,,,,,,,,,,,,,,,,,,,,,,,,,,,,,,001,24,2019_Oct_31_1333,viewing,3.1.2,60.004179060942064,
south.png,stims/wedding-19.1a.mp4,stims/wedding-19.1b.mp4,stims/wedding-19.2b.mp4,stims/wedding-19.3a.mp4,stims/wedding-19.4b.mp4,stims/wedding-19.5.mp4,stimsday2details/painting19.png,stimsday2details/newpainting18.png,stimsday2details/newperson36.png,stimsday2details/couple19.png,stimsday2details/gift19.png,stimsday2details/new36.png,stimsday2details/cn19.png,stimsday2details/n19.png,stimsday2details/ct19.png,stimsday2details/t19.png,0,11,11,11,,,,,,,,,,,,,,,,,,,,,,,,,,,,,,,,,,,,,,,,,,,,,,,,,,,,,,,,,,,,,,,,,,,,,,,,,4.0177954360842705e-05,None,2,0.9022440690314397,1759.2533027880127,None,1759.2533027880127,None,1759.2533027880127,None,1761.2370573049411,None,1,0.6675893280189484,1761.2370573049411,None,1761.2370573049411,None,1763.2365048159845,None,1763.2365048159845,None,2,0.7693768839817494,1763.2365048159845,None,2,1.0892826189519837,1765.2374846830498,None,1765.2374846830498,None,1765.2374846830498,None,1767.2375296809478,None,1767.2375296809478,None,1,0.7228370869997889,1767.2375296809478,None,1769.2416093749925,None,1769.2416093749925,None,2,1.45206057804171,1769.2416093749925,None,001,24,2019_Oct_31_1333,viewing,3.1.2,60.004179060942064,
