northOrSouth,stimFile1a,stimFile1b,stimFile2,stimFile3,stimFile4,stimFile5,Qeggpainting1,Qeggpainting2,Qcharacter1,Qcharacter2,Qgift1,Qgift2,Qname1,Qname2,Qtheme1,Qtheme2,trials.thisRepN,trials.thisTrialN,trials.thisN,trials.thisIndex,South.thisRepN,South.thisTrialN,South.thisN,South.thisIndex,North.thisRepN,North.thisTrialN,North.thisN,North.thisIndex,noQtrials.thisRepN,noQtrials.thisTrialN,noQtrials.thisN,noQtrials.thisIndex,Qtrials.thisRepN,Qtrials.thisTrialN,Qtrials.thisN,Qtrials.thisIndex,text.started,text.stopped,prep_trigger.keys,prep_trigger.rt,prep_trigger.started,prep_trigger.stopped,waiting.started,waiting.stopped,trigger.keys,trigger.rt,trigger.started,trigger.stopped,southCueImage.started,southCueImage.stopped,northCueImage.started,northCueImage.stopped,trialNoQs.started,trialNoQs.stopped,vid1a.started,vid1a.stopped,vid1b.started,vid1b.stopped,vid2.started,vid2.stopped,vid3.started,vid3.stopped,vid4.started,vid4.stopped,vid5.started,vid5.stopped,ISI2.started,ISI2.stopped,vid1a_q.started,vid1a_q.stopped,vid1b_q.started,vid1b_q.stopped,vid2_q.started,vid2_q.stopped,l2q.started,l2q.stopped,vid3_q.started,vid3_q.stopped,l3q.started,l3q.stopped,vid4_q.started,vid4_q.stopped,vid5_q.started,vid5_q.stopped,key_resp_2.keys,key_resp_2.rt,key_resp_2.started,key_resp_2.stopped,key_resp_3.keys,key_resp_3.rt,key_resp_3.started,key_resp_3.stopped,ISI7.started,ISI7.stopped,nameQresp.keys,nameQresp.rt,nameQresp.started,nameQresp.stopped,nameQ1.started,nameQ1.stopped,nameQ2.started,nameQ2.stopped,eggPainting1.started,eggPainting1.stopped,eggPaintingQresp.keys,eggPaintingQresp.rt,eggPaintingQresp.started,eggPaintingQresp.stopped,eggPainting2.started,eggPainting2.stopped,character1.started,character1.stopped,character2.started,character2.stopped,Qcharacter.keys,Qcharacter.rt,Qcharacter.started,Qcharacter.stopped,themeQresp.keys,themeQresp.rt,themeQresp.started,themeQresp.stopped,themeQ1.started,themeQ1.stopped,themeQ2.started,themeQ2.stopped,gift1.started,gift1.stopped,gift2.started,gift2.stopped,giftQresp.keys,giftQresp.rt,giftQresp.started,giftQresp.stopped,northorsouth1.started,northorsouth1.stopped,northorsouth2.started,northorsouth2.stopped,northOrSouthQ.keys,northOrSouthQ.rt,northOrSouthQ.started,northOrSouthQ.stopped,session,participant,date,expName,psychopyVersion,frameRate,
,,,,,,,,,,,,,,,,,,,,,,,,,,,,,,,,,,,,,9.19889259710908,None,g,0.9543742248788476,9.19889259710908,None,,,,,,,,,,,,,,,,,,,,,,,,,,,,,,,,,,,,,,,,,,,,,,,,,,,,,,,,,,,,,,,,,,,,,,,,,,,,,,,,,,,,,,,,,,,,,,,,,,,,,001,30,2019_Nov_26_1536,viewing,3.1.2,59.999936521120475,
,,,,,,,,,,,,,,,,,,,,,,,,,,,,,,,,,,,,,,,,,,,10.16562203830108,None,equal,33.55186465289444,10.16562203830108,None,,,,,,,,,,,,,,,,,,,,,,,,,,,,,,,,,,,,,,,,,,,,,,,,,,,,,,,,,,,,,,,,,,,,,,,,,,,,,,,,,,,,,,,,,,,,,,,001,30,2019_Nov_26_1536,viewing,3.1.2,59.999936521120475,
south.png,stims/wedding-38.1a.mp4,stims/wedding-38.1b.mp4,stims/wedding-38.2a.mp4,stims/wedding-38.3b.mp4,stims/wedding-38.4a.mp4,stims/wedding-38.5.mp4,stimsday2details/egg38.png,stimsday2details/newegg13.png,stimsday2details/newperson25.png,stimsday2details/couple38.png,stimsday2details/new25.png,stimsday2details/gift38.png,stimsday2details/n38.png,stimsday2details/cn38.png,stimsday2details/t38.png,stimsday2details/ct38.png,0,0,0,0,0,0,0,0,,,,,,,,,,,,,,,,,,,,,,,,,43.74852443486452,None,,,,,,,,,,,,,,,,,,,,,,,,,,,,,,,,,,,,,,,,,,,,,,,,,,,,,,,,,,,,,,,,,,,,,,,,,,,,,,,,,,,,,,,,,,,,,001,30,2019_Nov_26_1536,viewing,3.1.2,59.999936521120475,
south.png,stims/wedding-38.1a.mp4,stims/wedding-38.1b.mp4,stims/wedding-38.2a.mp4,stims/wedding-38.3b.mp4,stims/wedding-38.4a.mp4,stims/wedding-38.5.mp4,stimsday2details/egg38.png,stimsday2details/newegg13.png,stimsday2details/newperson25.png,stimsday2details/couple38.png,stimsday2details/new25.png,stimsday2details/gift38.png,stimsday2details/n38.png,stimsday2details/cn38.png,stimsday2details/t38.png,stimsday2details/ct38.png,0,0,0,0,,,,,0,0,0,0,,,,,,,,,,,,,,,,,,,,,,,None,None,,,,,,,,,,,,,,,,,,,,,,,,,,,,,,,,,,,,,,,,,,,,,,,,,,,,,,,,,,,,,,,,,,,,,,,,,,,,,,,,,,,,,,,,,,,001,30,2019_Nov_26_1536,viewing,3.1.2,59.999936521120475,
south.png,stims/wedding-38.1a.mp4,stims/wedding-38.1b.mp4,stims/wedding-38.2a.mp4,stims/wedding-38.3b.mp4,stims/wedding-38.4a.mp4,stims/wedding-38.5.mp4,stimsday2details/egg38.png,stimsday2details/newegg13.png,stimsday2details/newperson25.png,stimsday2details/couple38.png,stimsday2details/new25.png,stimsday2details/gift38.png,stimsday2details/n38.png,stimsday2details/cn38.png,stimsday2details/t38.png,stimsday2details/ct38.png,0,0,0,0,,,,,,,,,0,0,0,0,,,,,,,,,,,,,,,,,,,,,None,None,None,None,None,None,None,None,None,None,None,None,None,None,,,,,,,,,,,,,,,,,,,,,,,,,,,,,,,,,,,,,,,,,,,,,,,,,,,,,,,,,,,,,,,,,,,,,,,,,,,,,001,30,2019_Nov_26_1536,viewing,3.1.2,59.999936521120475,
south.png,stims/wedding-38.1a.mp4,stims/wedding-38.1b.mp4,stims/wedding-38.2a.mp4,stims/wedding-38.3b.mp4,stims/wedding-38.4a.mp4,stims/wedding-38.5.mp4,stimsday2details/egg38.png,stimsday2details/newegg13.png,stimsday2details/newperson25.png,stimsday2details/couple38.png,stimsday2details/new25.png,stimsday2details/gift38.png,stimsday2details/n38.png,stimsday2details/cn38.png,stimsday2details/t38.png,stimsday2details/ct38.png,0,0,0,0,,,,,,,,,,,,,0,0,0,0,,,,,,,,,,,,,,,,,,,,,,,,,,,,,,,2.808982424903661,None,56.64843193022534,81.84803268313408,81.86472148029134,None,90.86460526706651,107.84774393029511,107.86439035320655,111.84767454722896,111.86434178892523,134.84738625213504,134.86400711908937,138.84733785595745,138.86400468787178,None,162.8637022250332,None,['2'],[2.2687202487140894],106.86440866906196,111.84767454722896,['2'],[2.9517075521871448],133.86405597114936,138.84733785595745,,,,,,,,,,,,,,,,,,,,,,,,,,,,,,,,,,,,,,,,,,,,,,,,,,,001,30,2019_Nov_26_1536,viewing,3.1.2,59.999936521120475,
south.png,stims/wedding-38.1a.mp4,stims/wedding-38.1b.mp4,stims/wedding-38.2a.mp4,stims/wedding-38.3b.mp4,stims/wedding-38.4a.mp4,stims/wedding-38.5.mp4,stimsday2details/egg38.png,stimsday2details/newegg13.png,stimsday2details/newperson25.png,stimsday2details/couple38.png,stimsday2details/new25.png,stimsday2details/gift38.png,stimsday2details/n38.png,stimsday2details/cn38.png,stimsday2details/t38.png,stimsday2details/ct38.png,0,0,0,0,,,,,,,,,,,,,,,,,,,,,,,,,,,,,,,,,,,,,,,,,,,,,,,,,,,,,,,,,,,,,,,,,,,,,,,,,2.6795081794261932e-05,None,1,1.019221247639507,183.5634396323003,None,183.5634396323003,None,183.5634396323003,None,185.56346998503432,None,1,0.6693563503213227,185.56346998503432,None,185.56346998503432,None,187.563384429086,None,187.563384429086,None,2,0.8852383568882942,187.563384429086,None,1,0.918893557973206,189.56336721312255,None,189.56336721312255,None,189.56336721312255,None,191.56334164412692,None,191.56334164412692,None,2,0.6849350989796221,191.56334164412692,None,193.56336099514738,None,193.56336099514738,None,2,0.8670536940917373,193.56336099514738,None,001,30,2019_Nov_26_1536,viewing,3.1.2,59.999936521120475,
north.png,stims/wedding-20.1a.mp4,stims/wedding-20.1b.mp4,stims/wedding-20.2b.mp4,stims/wedding-20.3b.mp4,stims/wedding-20.4b.mp4,stims/wedding-20.5.mp4,stimsday2details/newpainting13.png,stimsday2details/painting20.png,stimsday2details/couple20.png,stimsday2details/newperson26.png,stimsday2details/gift20.png,stimsday2details/new26.png,stimsday2details/cn20.png,stimsday2details/n20.png,stimsday2details/t20.png,stimsday2details/ct20.png,0,1,1,1,0,0,0,0,,,,,,,,,,,,,,,,,,,,,,,,,None,None,,,,,,,,,,,,,,,,,,,,,,,,,,,,,,,,,,,,,,,,,,,,,,,,,,,,,,,,,,,,,,,,,,,,,,,,,,,,,,,,,,,,,,,,,,,,,001,30,2019_Nov_26_1536,viewing,3.1.2,59.999936521120475,
north.png,stims/wedding-20.1a.mp4,stims/wedding-20.1b.mp4,stims/wedding-20.2b.mp4,stims/wedding-20.3b.mp4,stims/wedding-20.4b.mp4,stims/wedding-20.5.mp4,stimsday2details/newpainting13.png,stimsday2details/painting20.png,stimsday2details/couple20.png,stimsday2details/newperson26.png,stimsday2details/gift20.png,stimsday2details/new26.png,stimsday2details/cn20.png,stimsday2details/n20.png,stimsday2details/t20.png,stimsday2details/ct20.png,0,1,1,1,,,,,0,0,0,0,,,,,,,,,,,,,,,,,,,,,,,195.61323154205456,None,,,,,,,,,,,,,,,,,,,,,,,,,,,,,,,,,,,,,,,,,,,,,,,,,,,,,,,,,,,,,,,,,,,,,,,,,,,,,,,,,,,,,,,,,,,001,30,2019_Nov_26_1536,viewing,3.1.2,59.999936521120475,
north.png,stims/wedding-20.1a.mp4,stims/wedding-20.1b.mp4,stims/wedding-20.2b.mp4,stims/wedding-20.3b.mp4,stims/wedding-20.4b.mp4,stims/wedding-20.5.mp4,stimsday2details/newpainting13.png,stimsday2details/painting20.png,stimsday2details/couple20.png,stimsday2details/newperson26.png,stimsday2details/gift20.png,stimsday2details/new26.png,stimsday2details/cn20.png,stimsday2details/n20.png,stimsday2details/t20.png,stimsday2details/ct20.png,0,1,1,1,,,,,,,,,0,0,0,0,,,,,,,,,,,,,,,,,,,,,2.886717507150024,None,205.54649993916973,230.66283734096214,230.67951137619093,None,239.67944037122652,None,256.67912558000535,279.66221374692395,279.6788808950223,None,303.6785860140808,None,,,,,,,,,,,,,,,,,,,,,,,,,,,,,,,,,,,,,,,,,,,,,,,,,,,,,,,,,,,,,,,,,,,,,,,,,,,,,001,30,2019_Nov_26_1536,viewing,3.1.2,59.999936521120475,
north.png,stims/wedding-20.1a.mp4,stims/wedding-20.1b.mp4,stims/wedding-20.2b.mp4,stims/wedding-20.3b.mp4,stims/wedding-20.4b.mp4,stims/wedding-20.5.mp4,stimsday2details/newpainting13.png,stimsday2details/painting20.png,stimsday2details/couple20.png,stimsday2details/newperson26.png,stimsday2details/gift20.png,stimsday2details/new26.png,stimsday2details/cn20.png,stimsday2details/n20.png,stimsday2details/t20.png,stimsday2details/ct20.png,0,1,1,1,,,,,,,,,,,,,0,0,0,0,,,,,,,,,,,,,,,,,,,,,,,,,,,,,,,None,None,None,None,None,None,None,None,None,None,None,None,None,None,None,None,None,None,None,,None,None,None,,None,None,,,,,,,,,,,,,,,,,,,,,,,,,,,,,,,,,,,,,,,,,,,,,,,,,,,001,30,2019_Nov_26_1536,viewing,3.1.2,59.999936521120475,
north.png,stims/wedding-20.1a.mp4,stims/wedding-20.1b.mp4,stims/wedding-20.2b.mp4,stims/wedding-20.3b.mp4,stims/wedding-20.4b.mp4,stims/wedding-20.5.mp4,stimsday2details/newpainting13.png,stimsday2details/painting20.png,stimsday2details/couple20.png,stimsday2details/newperson26.png,stimsday2details/gift20.png,stimsday2details/new26.png,stimsday2details/cn20.png,stimsday2details/n20.png,stimsday2details/t20.png,stimsday2details/ct20.png,0,1,1,1,,,,,,,,,,,,,,,,,,,,,,,,,,,,,,,,,,,,,,,,,,,,,,,,,,,,,,,,,,,,,,,,,,,,,,,,,2.9266811907291412e-05,None,2,0.9022276657633483,326.2283602692187,None,326.2283602692187,None,326.2283602692187,None,328.2282596770674,None,2,0.9684057123959064,328.2282596770674,None,328.2282596770674,None,330.22823878517374,None,330.22823878517374,None,1,0.802432210650295,330.22823878517374,None,2,1.4850128460675478,332.2281510978937,None,332.2281510978937,None,332.2281510978937,None,334.22818693704903,None,334.22818693704903,None,1,0.7516453457064927,334.22818693704903,None,336.2281609051861,None,336.2281609051861,None,1,0.8353751469403505,336.2281609051861,None,001,30,2019_Nov_26_1536,viewing,3.1.2,59.999936521120475,
north.png,stims/wedding-17.1a.mp4,stims/wedding-17.1b.mp4,stims/wedding-17.2b.mp4,stims/wedding-17.3b.mp4,stims/wedding-17.4b.mp4,stims/wedding-17.5.mp4,stimsday2details/painting17.png,stimsday2details/newpainting14.png,stimsday2details/couple17.png,stimsday2details/newperson27.png,stimsday2details/new27.png,stimsday2details/gift17.png,stimsday2details/cn17.png,stimsday2details/n17.png,stimsday2details/t17.png,stimsday2details/ct17.png,0,2,2,2,0,0,0,0,,,,,,,,,,,,,,,,,,,,,,,,,None,None,,,,,,,,,,,,,,,,,,,,,,,,,,,,,,,,,,,,,,,,,,,,,,,,,,,,,,,,,,,,,,,,,,,,,,,,,,,,,,,,,,,,,,,,,,,,,001,30,2019_Nov_26_1536,viewing,3.1.2,59.999936521120475,
north.png,stims/wedding-17.1a.mp4,stims/wedding-17.1b.mp4,stims/wedding-17.2b.mp4,stims/wedding-17.3b.mp4,stims/wedding-17.4b.mp4,stims/wedding-17.5.mp4,stimsday2details/painting17.png,stimsday2details/newpainting14.png,stimsday2details/couple17.png,stimsday2details/newperson27.png,stimsday2details/new27.png,stimsday2details/gift17.png,stimsday2details/cn17.png,stimsday2details/n17.png,stimsday2details/t17.png,stimsday2details/ct17.png,0,2,2,2,,,,,0,0,0,0,,,,,,,,,,,,,,,,,,,,,,,338.2948012058623,None,,,,,,,,,,,,,,,,,,,,,,,,,,,,,,,,,,,,,,,,,,,,,,,,,,,,,,,,,,,,,,,,,,,,,,,,,,,,,,,,,,,,,,,,,,,001,30,2019_Nov_26_1536,viewing,3.1.2,59.999936521120475,
north.png,stims/wedding-17.1a.mp4,stims/wedding-17.1b.mp4,stims/wedding-17.2b.mp4,stims/wedding-17.3b.mp4,stims/wedding-17.4b.mp4,stims/wedding-17.5.mp4,stimsday2details/painting17.png,stimsday2details/newpainting14.png,stimsday2details/couple17.png,stimsday2details/newperson27.png,stimsday2details/new27.png,stimsday2details/gift17.png,stimsday2details/cn17.png,stimsday2details/n17.png,stimsday2details/t17.png,stimsday2details/ct17.png,0,2,2,2,,,,,,,,,0,0,0,0,,,,,,,,,,,,,,,,,,,,,2.9819557941518724,None,348.34473826223984,None,373.37770008528605,None,382.377579418011,None,399.37736465688795,422.37707109190524,422.37707109190524,None,446.37676793010905,None,,,,,,,,,,,,,,,,,,,,,,,,,,,,,,,,,,,,,,,,,,,,,,,,,,,,,,,,,,,,,,,,,,,,,,,,,,,,,001,30,2019_Nov_26_1536,viewing,3.1.2,59.999936521120475,
north.png,stims/wedding-17.1a.mp4,stims/wedding-17.1b.mp4,stims/wedding-17.2b.mp4,stims/wedding-17.3b.mp4,stims/wedding-17.4b.mp4,stims/wedding-17.5.mp4,stimsday2details/painting17.png,stimsday2details/newpainting14.png,stimsday2details/couple17.png,stimsday2details/newperson27.png,stimsday2details/new27.png,stimsday2details/gift17.png,stimsday2details/cn17.png,stimsday2details/n17.png,stimsday2details/t17.png,stimsday2details/ct17.png,0,2,2,2,,,,,,,,,,,,,0,0,0,0,,,,,,,,,,,,,,,,,,,,,,,,,,,,,,,None,None,None,None,None,None,None,None,None,None,None,None,None,None,None,None,None,None,None,,None,None,None,,None,None,,,,,,,,,,,,,,,,,,,,,,,,,,,,,,,,,,,,,,,,,,,,,,,,,,,001,30,2019_Nov_26_1536,viewing,3.1.2,59.999936521120475,
north.png,stims/wedding-17.1a.mp4,stims/wedding-17.1b.mp4,stims/wedding-17.2b.mp4,stims/wedding-17.3b.mp4,stims/wedding-17.4b.mp4,stims/wedding-17.5.mp4,stimsday2details/painting17.png,stimsday2details/newpainting14.png,stimsday2details/couple17.png,stimsday2details/newperson27.png,stimsday2details/new27.png,stimsday2details/gift17.png,stimsday2details/cn17.png,stimsday2details/n17.png,stimsday2details/t17.png,stimsday2details/ct17.png,0,2,2,2,,,,,,,,,,,,,,,,,,,,,,,,,,,,,,,,,,,,,,,,,,,,,,,,,,,,,,,,,,,,,,,,,,,,,,,,,4.0708109736442566e-05,None,2,0.9190601501613855,470.0597550519742,None,470.0597550519742,None,470.0597550519742,None,472.04310340993106,None,1,0.6534905997104943,472.04310340993106,None,472.04310340993106,None,474.0430723601021,None,474.0430723601021,None,1,0.7016955930739641,474.0430723601021,None,1,1.3353385562077165,476.04305400699377,None,476.04305400699377,None,476.04305400699377,None,478.04302393924445,None,478.04302393924445,None,2,0.9853208572603762,478.04302393924445,None,480.0430002952926,None,480.0430002952926,None,1,0.8190532112494111,480.0430002952926,None,001,30,2019_Nov_26_1536,viewing,3.1.2,59.999936521120475,
south.png,stims/wedding-22.1a.mp4,stims/wedding-22.1b.mp4,stims/wedding-22.2a.mp4,stims/wedding-22.3b.mp4,stims/wedding-22.4a.mp4,stims/wedding-22.5.mp4,stimsday2details/egg22.png,stimsday2details/newegg14.png,stimsday2details/newperson28.png,stimsday2details/couple22.png,stimsday2details/new28.png,stimsday2details/gift22.png,stimsday2details/cn22.png,stimsday2details/n22.png,stimsday2details/ct22.png,stimsday2details/t22.png,0,3,3,3,0,0,0,0,,,,,,,,,,,,,,,,,,,,,,,,,482.0429763752036,None,,,,,,,,,,,,,,,,,,,,,,,,,,,,,,,,,,,,,,,,,,,,,,,,,,,,,,,,,,,,,,,,,,,,,,,,,,,,,,,,,,,,,,,,,,,,,001,30,2019_Nov_26_1536,viewing,3.1.2,59.999936521120475,
south.png,stims/wedding-22.1a.mp4,stims/wedding-22.1b.mp4,stims/wedding-22.2a.mp4,stims/wedding-22.3b.mp4,stims/wedding-22.4a.mp4,stims/wedding-22.5.mp4,stimsday2details/egg22.png,stimsday2details/newegg14.png,stimsday2details/newperson28.png,stimsday2details/couple22.png,stimsday2details/new28.png,stimsday2details/gift22.png,stimsday2details/cn22.png,stimsday2details/n22.png,stimsday2details/ct22.png,stimsday2details/t22.png,0,3,3,3,,,,,0,0,0,0,,,,,,,,,,,,,,,,,,,,,,,None,None,,,,,,,,,,,,,,,,,,,,,,,,,,,,,,,,,,,,,,,,,,,,,,,,,,,,,,,,,,,,,,,,,,,,,,,,,,,,,,,,,,,,,,,,,,,001,30,2019_Nov_26_1536,viewing,3.1.2,59.999936521120475,
south.png,stims/wedding-22.1a.mp4,stims/wedding-22.1b.mp4,stims/wedding-22.2a.mp4,stims/wedding-22.3b.mp4,stims/wedding-22.4a.mp4,stims/wedding-22.5.mp4,stimsday2details/egg22.png,stimsday2details/newegg14.png,stimsday2details/newperson28.png,stimsday2details/couple22.png,stimsday2details/new28.png,stimsday2details/gift22.png,stimsday2details/cn22.png,stimsday2details/n22.png,stimsday2details/ct22.png,stimsday2details/t22.png,0,3,3,3,,,,,,,,,0,0,0,0,,,,,,,,,,,,,,,,,,,,,3.0380107588134706,None,492.26219765516,517.2258595521562,517.2258595521562,None,526.2257413179614,None,543.2255335780792,566.2252436368726,566.2252436368726,590.224941207096,590.224941207096,None,,,,,,,,,,,,,,,,,,,,,,,,,,,,,,,,,,,,,,,,,,,,,,,,,,,,,,,,,,,,,,,,,,,,,,,,,,,,,001,30,2019_Nov_26_1536,viewing,3.1.2,59.999936521120475,
south.png,stims/wedding-22.1a.mp4,stims/wedding-22.1b.mp4,stims/wedding-22.2a.mp4,stims/wedding-22.3b.mp4,stims/wedding-22.4a.mp4,stims/wedding-22.5.mp4,stimsday2details/egg22.png,stimsday2details/newegg14.png,stimsday2details/newperson28.png,stimsday2details/couple22.png,stimsday2details/new28.png,stimsday2details/gift22.png,stimsday2details/cn22.png,stimsday2details/n22.png,stimsday2details/ct22.png,stimsday2details/t22.png,0,3,3,3,,,,,,,,,,,,,0,0,0,0,,,,,,,,,,,,,,,,,,,,,,,,,,,,,,,None,None,None,None,None,None,None,None,None,None,None,None,None,None,None,None,None,None,None,,None,None,None,,None,None,,,,,,,,,,,,,,,,,,,,,,,,,,,,,,,,,,,,,,,,,,,,,,,,,,,001,30,2019_Nov_26_1536,viewing,3.1.2,59.999936521120475,
south.png,stims/wedding-22.1a.mp4,stims/wedding-22.1b.mp4,stims/wedding-22.2a.mp4,stims/wedding-22.3b.mp4,stims/wedding-22.4a.mp4,stims/wedding-22.5.mp4,stimsday2details/egg22.png,stimsday2details/newegg14.png,stimsday2details/newperson28.png,stimsday2details/couple22.png,stimsday2details/new28.png,stimsday2details/gift22.png,stimsday2details/cn22.png,stimsday2details/n22.png,stimsday2details/ct22.png,stimsday2details/t22.png,0,3,3,3,,,,,,,,,,,,,,,,,,,,,,,,,,,,,,,,,,,,,,,,,,,,,,,,,,,,,,,,,,,,,,,,,,,,,,,,,4.993285983800888e-05,None,2,1.0318989497609437,613.9617505129427,None,613.9617505129427,None,613.9617505129427,None,615.9412911571562,None,1,0.8017160720191896,615.9412911571562,None,615.9412911571562,None,617.9412490092218,None,617.9412490092218,None,2,0.9516822500154376,617.9412490092218,None,2,1.3357438747771084,619.941222731024,None,619.941222731024,None,619.941222731024,None,621.941201238893,None,621.941201238893,None,2,0.9685297138057649,621.941201238893,None,623.94117203122,None,623.94117203122,None,1,1.501911889296025,623.94117203122,None,001,30,2019_Nov_26_1536,viewing,3.1.2,59.999936521120475,
south.png,stims/wedding-28.1a.mp4,stims/wedding-28.1b.mp4,stims/wedding-28.2b.mp4,stims/wedding-28.3a.mp4,stims/wedding-28.4b.mp4,stims/wedding-28.5.mp4,stimsday2details/newpainting15.png,stimsday2details/painting28.png,stimsday2details/newperson29.png,stimsday2details/couple28.png,stimsday2details/new29.png,stimsday2details/gift28.png,stimsday2details/cn28.png,stimsday2details/n28.png,stimsday2details/ct28.png,stimsday2details/t28.png,0,4,4,4,0,0,0,0,,,,,,,,,,,,,,,,,,,,,,,,,625.941153226886,None,,,,,,,,,,,,,,,,,,,,,,,,,,,,,,,,,,,,,,,,,,,,,,,,,,,,,,,,,,,,,,,,,,,,,,,,,,,,,,,,,,,,,,,,,,,,,001,30,2019_Nov_26_1536,viewing,3.1.2,59.999936521120475,
south.png,stims/wedding-28.1a.mp4,stims/wedding-28.1b.mp4,stims/wedding-28.2b.mp4,stims/wedding-28.3a.mp4,stims/wedding-28.4b.mp4,stims/wedding-28.5.mp4,stimsday2details/newpainting15.png,stimsday2details/painting28.png,stimsday2details/newperson29.png,stimsday2details/couple28.png,stimsday2details/new29.png,stimsday2details/gift28.png,stimsday2details/cn28.png,stimsday2details/n28.png,stimsday2details/ct28.png,stimsday2details/t28.png,0,4,4,4,,,,,0,0,0,0,,,,,,,,,,,,,,,,,,,,,,,None,None,,,,,,,,,,,,,,,,,,,,,,,,,,,,,,,,,,,,,,,,,,,,,,,,,,,,,,,,,,,,,,,,,,,,,,,,,,,,,,,,,,,,,,,,,,,001,30,2019_Nov_26_1536,viewing,3.1.2,59.999936521120475,
south.png,stims/wedding-28.1a.mp4,stims/wedding-28.1b.mp4,stims/wedding-28.2b.mp4,stims/wedding-28.3a.mp4,stims/wedding-28.4b.mp4,stims/wedding-28.5.mp4,stimsday2details/newpainting15.png,stimsday2details/painting28.png,stimsday2details/newperson29.png,stimsday2details/couple28.png,stimsday2details/new29.png,stimsday2details/gift28.png,stimsday2details/cn28.png,stimsday2details/n28.png,stimsday2details/ct28.png,stimsday2details/t28.png,0,4,4,4,,,,,,,,,0,0,0,0,,,,,,,,,,,,,,,,,,,,,2.8030626880936325,None,635.974354818929,661.1740302601829,661.1740302601829,None,670.1739228232764,None,687.1737092081457,710.1900826329365,710.1900826329365,None,734.1731050782837,None,,,,,,,,,,,,,,,,,,,,,,,,,,,,,,,,,,,,,,,,,,,,,,,,,,,,,,,,,,,,,,,,,,,,,,,,,,,,,001,30,2019_Nov_26_1536,viewing,3.1.2,59.999936521120475,
south.png,stims/wedding-28.1a.mp4,stims/wedding-28.1b.mp4,stims/wedding-28.2b.mp4,stims/wedding-28.3a.mp4,stims/wedding-28.4b.mp4,stims/wedding-28.5.mp4,stimsday2details/newpainting15.png,stimsday2details/painting28.png,stimsday2details/newperson29.png,stimsday2details/couple28.png,stimsday2details/new29.png,stimsday2details/gift28.png,stimsday2details/cn28.png,stimsday2details/n28.png,stimsday2details/ct28.png,stimsday2details/t28.png,0,4,4,4,,,,,,,,,,,,,0,0,0,0,,,,,,,,,,,,,,,,,,,,,,,,,,,,,,,None,None,None,None,None,None,None,None,None,None,None,None,None,None,None,None,None,None,None,,None,None,None,,None,None,,,,,,,,,,,,,,,,,,,,,,,,,,,,,,,,,,,,,,,,,,,,,,,,,,,001,30,2019_Nov_26_1536,viewing,3.1.2,59.999936521120475,
south.png,stims/wedding-28.1a.mp4,stims/wedding-28.1b.mp4,stims/wedding-28.2b.mp4,stims/wedding-28.3a.mp4,stims/wedding-28.4b.mp4,stims/wedding-28.5.mp4,stimsday2details/newpainting15.png,stimsday2details/painting28.png,stimsday2details/newperson29.png,stimsday2details/couple28.png,stimsday2details/new29.png,stimsday2details/gift28.png,stimsday2details/cn28.png,stimsday2details/n28.png,stimsday2details/ct28.png,stimsday2details/t28.png,0,4,4,4,,,,,,,,,,,,,,,,,,,,,,,,,,,,,,,,,,,,,,,,,,,,,,,,,,,,,,,,,,,,,,,,,,,,,,,,,3.576325252652168e-05,None,2,0.8021463360637426,758.3061983841471,None,758.3061983841471,None,758.3061983841471,None,760.2894425699487,None,2,0.9350512931123376,760.2894425699487,None,760.2894425699487,None,762.2893488910049,None,762.2893488910049,None,2,0.9519769549369812,762.2893488910049,None,2,1.085608054883778,764.2893857830204,None,764.2893857830204,None,764.2893857830204,None,766.2893633469939,None,766.2893633469939,None,2,0.9853192488662899,766.2893633469939,None,768.2893486069515,None,768.2893486069515,None,2,1.1853170436806977,768.2893486069515,None,001,30,2019_Nov_26_1536,viewing,3.1.2,59.999936521120475,
north.png,stims/wedding-1.1a.mp4,stims/wedding-1.1b.mp4,stims/wedding-1.2a.mp4,stims/wedding-1.3a.mp4,stims/wedding-1.4a.mp4,stims/wedding-1.5.mp4,stimsday2details/egg1.png,stimsday2details/newegg15.png,stimsday2details/newperson30.png,stimsday2details/couple1.png,stimsday2details/new30.png,stimsday2details/gift1.png,stimsday2details/cn1.png,stimsday2details/n1.png,stimsday2details/t1.png,stimsday2details/ct1.png,0,5,5,5,0,0,0,0,,,,,,,,,,,,,,,,,,,,,,,,,None,None,,,,,,,,,,,,,,,,,,,,,,,,,,,,,,,,,,,,,,,,,,,,,,,,,,,,,,,,,,,,,,,,,,,,,,,,,,,,,,,,,,,,,,,,,,,,,001,30,2019_Nov_26_1536,viewing,3.1.2,59.999936521120475,
north.png,stims/wedding-1.1a.mp4,stims/wedding-1.1b.mp4,stims/wedding-1.2a.mp4,stims/wedding-1.3a.mp4,stims/wedding-1.4a.mp4,stims/wedding-1.5.mp4,stimsday2details/egg1.png,stimsday2details/newegg15.png,stimsday2details/newperson30.png,stimsday2details/couple1.png,stimsday2details/new30.png,stimsday2details/gift1.png,stimsday2details/cn1.png,stimsday2details/n1.png,stimsday2details/t1.png,stimsday2details/ct1.png,0,5,5,5,,,,,0,0,0,0,,,,,,,,,,,,,,,,,,,,,,,770.4226460829377,None,,,,,,,,,,,,,,,,,,,,,,,,,,,,,,,,,,,,,,,,,,,,,,,,,,,,,,,,,,,,,,,,,,,,,,,,,,,,,,,,,,,,,,,,,,,001,30,2019_Nov_26_1536,viewing,3.1.2,59.999936521120475,
north.png,stims/wedding-1.1a.mp4,stims/wedding-1.1b.mp4,stims/wedding-1.2a.mp4,stims/wedding-1.3a.mp4,stims/wedding-1.4a.mp4,stims/wedding-1.5.mp4,stimsday2details/egg1.png,stimsday2details/newegg15.png,stimsday2details/newperson30.png,stimsday2details/couple1.png,stimsday2details/new30.png,stimsday2details/gift1.png,stimsday2details/cn1.png,stimsday2details/n1.png,stimsday2details/t1.png,stimsday2details/ct1.png,0,5,5,5,,,,,,,,,0,0,0,0,,,,,,,,,,,,,,,,,,,,,3.0470342691987753,None,780.6059128502384,805.5555417751893,805.5722006792203,None,814.5720823332667,831.5552066331729,831.5718114068732,854.554829291068,854.5715225241147,None,878.5712766251527,None,,,,,,,,,,,,,,,,,,,,,,,,,,,,,,,,,,,,,,,,,,,,,,,,,,,,,,,,,,,,,,,,,,,,,,,,,,,,,001,30,2019_Nov_26_1536,viewing,3.1.2,59.999936521120475,
north.png,stims/wedding-1.1a.mp4,stims/wedding-1.1b.mp4,stims/wedding-1.2a.mp4,stims/wedding-1.3a.mp4,stims/wedding-1.4a.mp4,stims/wedding-1.5.mp4,stimsday2details/egg1.png,stimsday2details/newegg15.png,stimsday2details/newperson30.png,stimsday2details/couple1.png,stimsday2details/new30.png,stimsday2details/gift1.png,stimsday2details/cn1.png,stimsday2details/n1.png,stimsday2details/t1.png,stimsday2details/ct1.png,0,5,5,5,,,,,,,,,,,,,0,0,0,0,,,,,,,,,,,,,,,,,,,,,,,,,,,,,,,None,None,None,None,None,None,None,None,None,None,None,None,None,None,None,None,None,None,None,,None,None,None,,None,None,,,,,,,,,,,,,,,,,,,,,,,,,,,,,,,,,,,,,,,,,,,,,,,,,,,001,30,2019_Nov_26_1536,viewing,3.1.2,59.999936521120475,
north.png,stims/wedding-1.1a.mp4,stims/wedding-1.1b.mp4,stims/wedding-1.2a.mp4,stims/wedding-1.3a.mp4,stims/wedding-1.4a.mp4,stims/wedding-1.5.mp4,stimsday2details/egg1.png,stimsday2details/newegg15.png,stimsday2details/newperson30.png,stimsday2details/couple1.png,stimsday2details/new30.png,stimsday2details/gift1.png,stimsday2details/cn1.png,stimsday2details/n1.png,stimsday2details/t1.png,stimsday2details/ct1.png,0,5,5,5,,,,,,,,,,,,,,,,,,,,,,,,,,,,,,,,,,,,,,,,,,,,,,,,,,,,,,,,,,,,,,,,,,,,,,,,,4.463270306587219e-05,None,2,0.8523908439092338,902.3543754611164,None,902.3543754611164,None,902.3543754611164,None,904.3376140580513,None,1,1.0018482329323888,904.3376140580513,None,904.3376140580513,None,906.3375909202732,None,906.3375909202732,None,2,0.7851501777768135,906.3375909202732,None,1,1.3518276219256222,908.3375602979213,None,908.3375602979213,None,908.3375602979213,None,910.3375397240743,None,910.3375397240743,None,2,0.9684945768676698,910.3375397240743,None,912.337510899175,None,912.337510899175,None,1,1.7025076961144805,912.337510899175,None,001,30,2019_Nov_26_1536,viewing,3.1.2,59.999936521120475,
north.png,stims/wedding-34.1a.mp4,stims/wedding-34.1b.mp4,stims/wedding-34.2a.mp4,stims/wedding-34.3a.mp4,stims/wedding-34.4a.mp4,stims/wedding-34.5.mp4,stimsday2details/newegg16.png,stimsday2details/egg34.png,stimsday2details/newperson31.png,stimsday2details/couple34.png,stimsday2details/new31.png,stimsday2details/gift34.png,stimsday2details/cn34.png,stimsday2details/n34.png,stimsday2details/t34.png,stimsday2details/ct34.png,0,6,6,6,0,0,0,0,,,,,,,,,,,,,,,,,,,,,,,,,None,None,,,,,,,,,,,,,,,,,,,,,,,,,,,,,,,,,,,,,,,,,,,,,,,,,,,,,,,,,,,,,,,,,,,,,,,,,,,,,,,,,,,,,,,,,,,,,001,30,2019_Nov_26_1536,viewing,3.1.2,59.999936521120475,
north.png,stims/wedding-34.1a.mp4,stims/wedding-34.1b.mp4,stims/wedding-34.2a.mp4,stims/wedding-34.3a.mp4,stims/wedding-34.4a.mp4,stims/wedding-34.5.mp4,stimsday2details/newegg16.png,stimsday2details/egg34.png,stimsday2details/newperson31.png,stimsday2details/couple34.png,stimsday2details/new31.png,stimsday2details/gift34.png,stimsday2details/cn34.png,stimsday2details/n34.png,stimsday2details/t34.png,stimsday2details/ct34.png,0,6,6,6,,,,,0,0,0,0,,,,,,,,,,,,,,,,,,,,,,,914.4874806129374,None,,,,,,,,,,,,,,,,,,,,,,,,,,,,,,,,,,,,,,,,,,,,,,,,,,,,,,,,,,,,,,,,,,,,,,,,,,,,,,,,,,,,,,,,,,,001,30,2019_Nov_26_1536,viewing,3.1.2,59.999936521120475,
north.png,stims/wedding-34.1a.mp4,stims/wedding-34.1b.mp4,stims/wedding-34.2a.mp4,stims/wedding-34.3a.mp4,stims/wedding-34.4a.mp4,stims/wedding-34.5.mp4,stimsday2details/newegg16.png,stimsday2details/egg34.png,stimsday2details/newperson31.png,stimsday2details/couple34.png,stimsday2details/new31.png,stimsday2details/gift34.png,stimsday2details/cn34.png,stimsday2details/n34.png,stimsday2details/t34.png,stimsday2details/ct34.png,0,6,6,6,,,,,,,,,0,0,0,0,,,,,,,,,,,,,,,,,,,,,3.0179708460345864,None,924.6706897579134,949.6537068048492,949.6537068048492,None,958.6535891629755,None,975.6533747632056,None,998.65308702318,1022.6527781188488,1022.6527781188488,None,,,,,,,,,,,,,,,,,,,,,,,,,,,,,,,,,,,,,,,,,,,,,,,,,,,,,,,,,,,,,,,,,,,,,,,,,,,,,001,30,2019_Nov_26_1536,viewing,3.1.2,59.999936521120475,
north.png,stims/wedding-34.1a.mp4,stims/wedding-34.1b.mp4,stims/wedding-34.2a.mp4,stims/wedding-34.3a.mp4,stims/wedding-34.4a.mp4,stims/wedding-34.5.mp4,stimsday2details/newegg16.png,stimsday2details/egg34.png,stimsday2details/newperson31.png,stimsday2details/couple34.png,stimsday2details/new31.png,stimsday2details/gift34.png,stimsday2details/cn34.png,stimsday2details/n34.png,stimsday2details/t34.png,stimsday2details/ct34.png,0,6,6,6,,,,,,,,,,,,,0,0,0,0,,,,,,,,,,,,,,,,,,,,,,,,,,,,,,,None,None,None,None,None,None,None,None,None,None,None,None,None,None,None,None,None,None,None,,None,None,None,,None,None,,,,,,,,,,,,,,,,,,,,,,,,,,,,,,,,,,,,,,,,,,,,,,,,,,,001,30,2019_Nov_26_1536,viewing,3.1.2,59.999936521120475,
north.png,stims/wedding-34.1a.mp4,stims/wedding-34.1b.mp4,stims/wedding-34.2a.mp4,stims/wedding-34.3a.mp4,stims/wedding-34.4a.mp4,stims/wedding-34.5.mp4,stimsday2details/newegg16.png,stimsday2details/egg34.png,stimsday2details/newperson31.png,stimsday2details/couple34.png,stimsday2details/new31.png,stimsday2details/gift34.png,stimsday2details/cn34.png,stimsday2details/n34.png,stimsday2details/t34.png,stimsday2details/ct34.png,0,6,6,6,,,,,,,,,,,,,,,,,,,,,,,,,,,,,,,,,,,,,,,,,,,,,,,,,,,,,,,,,,,,,,,,,,,,,,,,,3.387313336133957e-05,None,2,1.100019283592701,1046.2378524011,None,1046.2378524011,None,1046.2378524011,None,1048.219118484296,None,2,0.7518140412867069,1048.219118484296,None,1048.219118484296,None,1050.2190962499008,None,1050.2190962499008,None,2,0.768964305985719,1050.2190962499008,None,1,0.9018934923224151,1052.2190078739077,None,1052.2190078739077,None,1052.2190078739077,None,1054.2189822932705,None,1054.2189822932705,None,2,0.9684372819028795,1054.2189822932705,None,1056.218952300027,None,1056.218952300027,None,1,1.1687743277288973,1056.218952300027,None,001,30,2019_Nov_26_1536,viewing,3.1.2,59.999936521120475,
south.png,stims/wedding-2.1a.mp4,stims/wedding-2.1b.mp4,stims/wedding-2.2b.mp4,stims/wedding-2.3a.mp4,stims/wedding-2.4b.mp4,stims/wedding-2.5.mp4,stimsday2details/newpainting16.png,stimsday2details/painting2.png,stimsday2details/newperson32.png,stimsday2details/couple2.png,stimsday2details/gift2.png,stimsday2details/new32.png,stimsday2details/cn2.png,stimsday2details/n2.png,stimsday2details/t2.png,stimsday2details/ct2.png,0,7,7,7,0,0,0,0,,,,,,,,,,,,,,,,,,,,,,,,,1058.218929424882,None,,,,,,,,,,,,,,,,,,,,,,,,,,,,,,,,,,,,,,,,,,,,,,,,,,,,,,,,,,,,,,,,,,,,,,,,,,,,,,,,,,,,,,,,,,,,,001,30,2019_Nov_26_1536,viewing,3.1.2,59.999936521120475,
south.png,stims/wedding-2.1a.mp4,stims/wedding-2.1b.mp4,stims/wedding-2.2b.mp4,stims/wedding-2.3a.mp4,stims/wedding-2.4b.mp4,stims/wedding-2.5.mp4,stimsday2details/newpainting16.png,stimsday2details/painting2.png,stimsday2details/newperson32.png,stimsday2details/couple2.png,stimsday2details/gift2.png,stimsday2details/new32.png,stimsday2details/cn2.png,stimsday2details/n2.png,stimsday2details/t2.png,stimsday2details/ct2.png,0,7,7,7,,,,,0,0,0,0,,,,,,,,,,,,,,,,,,,,,,,None,None,,,,,,,,,,,,,,,,,,,,,,,,,,,,,,,,,,,,,,,,,,,,,,,,,,,,,,,,,,,,,,,,,,,,,,,,,,,,,,,,,,,,,,,,,,,001,30,2019_Nov_26_1536,viewing,3.1.2,59.999936521120475,
south.png,stims/wedding-2.1a.mp4,stims/wedding-2.1b.mp4,stims/wedding-2.2b.mp4,stims/wedding-2.3a.mp4,stims/wedding-2.4b.mp4,stims/wedding-2.5.mp4,stimsday2details/newpainting16.png,stimsday2details/painting2.png,stimsday2details/newperson32.png,stimsday2details/couple2.png,stimsday2details/gift2.png,stimsday2details/new32.png,stimsday2details/cn2.png,stimsday2details/n2.png,stimsday2details/t2.png,stimsday2details/ct2.png,0,7,7,7,,,,,,,,,0,0,0,0,,,,,,,,,,,,,,,,,,,,,2.8884309898130596,None,1068.4695057482459,None,1093.5852063852362,None,1102.5850271419622,None,1119.5848790099844,1142.5845849439502,1142.5845849439502,1166.5842749350704,1166.5842749350704,None,,,,,,,,,,,,,,,,,,,,,,,,,,,,,,,,,,,,,,,,,,,,,,,,,,,,,,,,,,,,,,,,,,,,,,,,,,,,,001,30,2019_Nov_26_1536,viewing,3.1.2,59.999936521120475,
south.png,stims/wedding-2.1a.mp4,stims/wedding-2.1b.mp4,stims/wedding-2.2b.mp4,stims/wedding-2.3a.mp4,stims/wedding-2.4b.mp4,stims/wedding-2.5.mp4,stimsday2details/newpainting16.png,stimsday2details/painting2.png,stimsday2details/newperson32.png,stimsday2details/couple2.png,stimsday2details/gift2.png,stimsday2details/new32.png,stimsday2details/cn2.png,stimsday2details/n2.png,stimsday2details/t2.png,stimsday2details/ct2.png,0,7,7,7,,,,,,,,,,,,,0,0,0,0,,,,,,,,,,,,,,,,,,,,,,,,,,,,,,,None,None,None,None,None,None,None,None,None,None,None,None,None,None,None,None,None,None,None,,None,None,None,,None,None,,,,,,,,,,,,,,,,,,,,,,,,,,,,,,,,,,,,,,,,,,,,,,,,,,,001,30,2019_Nov_26_1536,viewing,3.1.2,59.999936521120475,
south.png,stims/wedding-2.1a.mp4,stims/wedding-2.1b.mp4,stims/wedding-2.2b.mp4,stims/wedding-2.3a.mp4,stims/wedding-2.4b.mp4,stims/wedding-2.5.mp4,stimsday2details/newpainting16.png,stimsday2details/painting2.png,stimsday2details/newperson32.png,stimsday2details/couple2.png,stimsday2details/gift2.png,stimsday2details/new32.png,stimsday2details/cn2.png,stimsday2details/n2.png,stimsday2details/t2.png,stimsday2details/ct2.png,0,7,7,7,,,,,,,,,,,,,,,,,,,,,,,,,,,,,,,,,,,,,,,,,,,,,,,,,,,,,,,,,,,,,,,,,,,,,,,,,4.336796700954437e-05,None,2,0.8349382458254695,1190.5173708051443,None,1190.5173708051443,None,1190.5173708051443,None,1192.5005509112962,None,2,0.7351909168064594,1192.5005509112962,None,1192.5005509112962,None,1194.500586078968,None,1194.500586078968,None,2,0.7354330602101982,1194.500586078968,None,1,1.1019486961886287,1196.5005628149956,None,1196.5005628149956,None,1196.5005628149956,None,1198.5004744869657,None,1198.5004744869657,None,1,0.7852027304470539,1198.5004744869657,None,1200.5004437700845,None,1200.5004437700845,None,2,1.63558100303635,1200.5004437700845,None,001,30,2019_Nov_26_1536,viewing,3.1.2,59.999936521120475,
south.png,stims/wedding-29.1a.mp4,stims/wedding-29.1b.mp4,stims/wedding-29.2a.mp4,stims/wedding-29.3b.mp4,stims/wedding-29.4a.mp4,stims/wedding-29.5.mp4,stimsday2details/newegg17.png,stimsday2details/egg29.png,stimsday2details/couple29.png,stimsday2details/newperson33.png,stimsday2details/new33.png,stimsday2details/gift29.png,stimsday2details/cn29.png,stimsday2details/n29.png,stimsday2details/ct29.png,stimsday2details/t29.png,0,8,8,8,0,0,0,0,,,,,,,,,,,,,,,,,,,,,,,,,1202.5004843641073,None,,,,,,,,,,,,,,,,,,,,,,,,,,,,,,,,,,,,,,,,,,,,,,,,,,,,,,,,,,,,,,,,,,,,,,,,,,,,,,,,,,,,,,,,,,,,,001,30,2019_Nov_26_1536,viewing,3.1.2,59.999936521120475,
south.png,stims/wedding-29.1a.mp4,stims/wedding-29.1b.mp4,stims/wedding-29.2a.mp4,stims/wedding-29.3b.mp4,stims/wedding-29.4a.mp4,stims/wedding-29.5.mp4,stimsday2details/newegg17.png,stimsday2details/egg29.png,stimsday2details/couple29.png,stimsday2details/newperson33.png,stimsday2details/new33.png,stimsday2details/gift29.png,stimsday2details/cn29.png,stimsday2details/n29.png,stimsday2details/ct29.png,stimsday2details/t29.png,0,8,8,8,,,,,0,0,0,0,,,,,,,,,,,,,,,,,,,,,,,None,None,,,,,,,,,,,,,,,,,,,,,,,,,,,,,,,,,,,,,,,,,,,,,,,,,,,,,,,,,,,,,,,,,,,,,,,,,,,,,,,,,,,,,,,,,,,001,30,2019_Nov_26_1536,viewing,3.1.2,59.999936521120475,
south.png,stims/wedding-29.1a.mp4,stims/wedding-29.1b.mp4,stims/wedding-29.2a.mp4,stims/wedding-29.3b.mp4,stims/wedding-29.4a.mp4,stims/wedding-29.5.mp4,stimsday2details/newegg17.png,stimsday2details/egg29.png,stimsday2details/couple29.png,stimsday2details/newperson33.png,stimsday2details/new33.png,stimsday2details/gift29.png,stimsday2details/cn29.png,stimsday2details/n29.png,stimsday2details/ct29.png,stimsday2details/t29.png,0,8,8,8,,,,,,,,,0,0,0,0,,,,,,,,,,,,,,,,,,,,,3.179302752017975,None,1213.08368712198,1237.900040406268,1237.9167067860253,None,1246.9168450050056,None,1263.916372696869,1286.8994136839174,1286.9160156259313,None,1310.91577520594,None,,,,,,,,,,,,,,,,,,,,,,,,,,,,,,,,,,,,,,,,,,,,,,,,,,,,,,,,,,,,,,,,,,,,,,,,,,,,,001,30,2019_Nov_26_1536,viewing,3.1.2,59.999936521120475,
south.png,stims/wedding-29.1a.mp4,stims/wedding-29.1b.mp4,stims/wedding-29.2a.mp4,stims/wedding-29.3b.mp4,stims/wedding-29.4a.mp4,stims/wedding-29.5.mp4,stimsday2details/newegg17.png,stimsday2details/egg29.png,stimsday2details/couple29.png,stimsday2details/newperson33.png,stimsday2details/new33.png,stimsday2details/gift29.png,stimsday2details/cn29.png,stimsday2details/n29.png,stimsday2details/ct29.png,stimsday2details/t29.png,0,8,8,8,,,,,,,,,,,,,0,0,0,0,,,,,,,,,,,,,,,,,,,,,,,,,,,,,,,None,None,None,None,None,None,None,None,None,None,None,None,None,None,None,None,None,None,None,,None,None,None,,None,None,,,,,,,,,,,,,,,,,,,,,,,,,,,,,,,,,,,,,,,,,,,,,,,,,,,001,30,2019_Nov_26_1536,viewing,3.1.2,59.999936521120475,
south.png,stims/wedding-29.1a.mp4,stims/wedding-29.1b.mp4,stims/wedding-29.2a.mp4,stims/wedding-29.3b.mp4,stims/wedding-29.4a.mp4,stims/wedding-29.5.mp4,stimsday2details/newegg17.png,stimsday2details/egg29.png,stimsday2details/couple29.png,stimsday2details/newperson33.png,stimsday2details/new33.png,stimsday2details/gift29.png,stimsday2details/cn29.png,stimsday2details/n29.png,stimsday2details/ct29.png,stimsday2details/t29.png,0,8,8,8,,,,,,,,,,,,,,,,,,,,,,,,,,,,,,,,,,,,,,,,,,,,,,,,,,,,,,,,,,,,,,,,,,,,,,,,,3.9919279515743256e-05,None,2,0.8685852792114019,1334.5988054950722,None,1334.5988054950722,None,1334.5988054950722,None,1336.598778958898,None,2,0.8519768961705267,1336.598778958898,None,1336.598778958898,None,1338.5987574202009,None,1338.5987574202009,None,1,0.6525200977921486,1338.5987574202009,None,2,1.0686744661070406,1340.5987285771407,None,1340.5987285771407,None,1340.5987285771407,None,1342.5987032540143,None,1342.5987032540143,None,2,1.2016687197610736,1342.5987032540143,None,1344.5986792412587,None,1344.5986792412587,None,2,1.5018601068295538,1344.5986792412587,None,001,30,2019_Nov_26_1536,viewing,3.1.2,59.999936521120475,
north.png,stims/wedding-23.1a.mp4,stims/wedding-23.1b.mp4,stims/wedding-23.2a.mp4,stims/wedding-23.3a.mp4,stims/wedding-23.4a.mp4,stims/wedding-23.5.mp4,stimsday2details/egg23.png,stimsday2details/newegg18.png,stimsday2details/newperson34.png,stimsday2details/couple23.png,stimsday2details/gift23.png,stimsday2details/new34.png,stimsday2details/cn23.png,stimsday2details/n23.png,stimsday2details/t23.png,stimsday2details/ct23.png,0,9,9,9,0,0,0,0,,,,,,,,,,,,,,,,,,,,,,,,,None,None,,,,,,,,,,,,,,,,,,,,,,,,,,,,,,,,,,,,,,,,,,,,,,,,,,,,,,,,,,,,,,,,,,,,,,,,,,,,,,,,,,,,,,,,,,,,,001,30,2019_Nov_26_1536,viewing,3.1.2,59.999936521120475,
north.png,stims/wedding-23.1a.mp4,stims/wedding-23.1b.mp4,stims/wedding-23.2a.mp4,stims/wedding-23.3a.mp4,stims/wedding-23.4a.mp4,stims/wedding-23.5.mp4,stimsday2details/egg23.png,stimsday2details/newegg18.png,stimsday2details/newperson34.png,stimsday2details/couple23.png,stimsday2details/gift23.png,stimsday2details/new34.png,stimsday2details/cn23.png,stimsday2details/n23.png,stimsday2details/t23.png,stimsday2details/ct23.png,0,9,9,9,,,,,0,0,0,0,,,,,,,,,,,,,,,,,,,,,,,1346.9652438801713,None,,,,,,,,,,,,,,,,,,,,,,,,,,,,,,,,,,,,,,,,,,,,,,,,,,,,,,,,,,,,,,,,,,,,,,,,,,,,,,,,,,,,,,,,,,,001,30,2019_Nov_26_1536,viewing,3.1.2,59.999936521120475,
north.png,stims/wedding-23.1a.mp4,stims/wedding-23.1b.mp4,stims/wedding-23.2a.mp4,stims/wedding-23.3a.mp4,stims/wedding-23.4a.mp4,stims/wedding-23.5.mp4,stimsday2details/egg23.png,stimsday2details/newegg18.png,stimsday2details/newperson34.png,stimsday2details/couple23.png,stimsday2details/gift23.png,stimsday2details/new34.png,stimsday2details/cn23.png,stimsday2details/n23.png,stimsday2details/t23.png,stimsday2details/ct23.png,0,9,9,9,,,,,,,,,0,0,0,0,,,,,,,,,,,,,,,,,,,,,3.091029725037515,None,1357.2819261378609,1382.1814576638862,1382.1981254792772,None,1391.1980813080445,1408.1812007441185,1408.1978667429648,1431.1809169300832,1431.1975740850903,1455.180599886924,1455.1972691891715,None,,,,,,,,,,,,,,,,,,,,,,,,,,,,,,,,,,,,,,,,,,,,,,,,,,,,,,,,,,,,,,,,,,,,,,,,,,,,,001,30,2019_Nov_26_1536,viewing,3.1.2,59.999936521120475,
north.png,stims/wedding-23.1a.mp4,stims/wedding-23.1b.mp4,stims/wedding-23.2a.mp4,stims/wedding-23.3a.mp4,stims/wedding-23.4a.mp4,stims/wedding-23.5.mp4,stimsday2details/egg23.png,stimsday2details/newegg18.png,stimsday2details/newperson34.png,stimsday2details/couple23.png,stimsday2details/gift23.png,stimsday2details/new34.png,stimsday2details/cn23.png,stimsday2details/n23.png,stimsday2details/t23.png,stimsday2details/ct23.png,0,9,9,9,,,,,,,,,,,,,0,0,0,0,,,,,,,,,,,,,,,,,,,,,,,,,,,,,,,None,None,None,None,None,None,None,None,None,None,None,None,None,None,None,None,None,None,None,,None,None,None,,None,None,,,,,,,,,,,,,,,,,,,,,,,,,,,,,,,,,,,,,,,,,,,,,,,,,,,001,30,2019_Nov_26_1536,viewing,3.1.2,59.999936521120475,
north.png,stims/wedding-23.1a.mp4,stims/wedding-23.1b.mp4,stims/wedding-23.2a.mp4,stims/wedding-23.3a.mp4,stims/wedding-23.4a.mp4,stims/wedding-23.5.mp4,stimsday2details/egg23.png,stimsday2details/newegg18.png,stimsday2details/newperson34.png,stimsday2details/couple23.png,stimsday2details/gift23.png,stimsday2details/new34.png,stimsday2details/cn23.png,stimsday2details/n23.png,stimsday2details/t23.png,stimsday2details/ct23.png,0,9,9,9,,,,,,,,,,,,,,,,,,,,,,,,,,,,,,,,,,,,,,,,,,,,,,,,,,,,,,,,,,,,,,,,,,,,,,,,,3.816792741417885e-05,None,2,0.7021432812325656,1479.6969655030407,None,1479.6969655030407,None,1479.6969655030407,None,1481.6802670592442,None,1,0.868249692954123,1481.6802670592442,None,1481.6802670592442,None,1483.6801683632657,None,1483.6801683632657,None,2,0.7023781640455127,1483.6801683632657,None,1,0.8020199658349156,1485.6801496562548,None,1485.6801496562548,None,1485.6801496562548,None,1487.680191884283,None,1487.680191884283,None,1,1.1685584262013435,1487.680191884283,None,1489.6801712950692,None,1489.6801712950692,None,1,1.7518009701743722,1489.6801712950692,None,001,30,2019_Nov_26_1536,viewing,3.1.2,59.999936521120475,
north.png,stims/wedding-19.1a.mp4,stims/wedding-19.1b.mp4,stims/wedding-19.2b.mp4,stims/wedding-19.3b.mp4,stims/wedding-19.4b.mp4,stims/wedding-19.5.mp4,stimsday2details/newpainting17.png,stimsday2details/painting19.png,stimsday2details/couple19.png,stimsday2details/newperson35.png,stimsday2details/new35.png,stimsday2details/gift19.png,stimsday2details/n19.png,stimsday2details/cn19.png,stimsday2details/ct19.png,stimsday2details/t19.png,0,10,10,10,0,0,0,0,,,,,,,,,,,,,,,,,,,,,,,,,None,None,,,,,,,,,,,,,,,,,,,,,,,,,,,,,,,,,,,,,,,,,,,,,,,,,,,,,,,,,,,,,,,,,,,,,,,,,,,,,,,,,,,,,,,,,,,,,001,30,2019_Nov_26_1536,viewing,3.1.2,59.999936521120475,
north.png,stims/wedding-19.1a.mp4,stims/wedding-19.1b.mp4,stims/wedding-19.2b.mp4,stims/wedding-19.3b.mp4,stims/wedding-19.4b.mp4,stims/wedding-19.5.mp4,stimsday2details/newpainting17.png,stimsday2details/painting19.png,stimsday2details/couple19.png,stimsday2details/newperson35.png,stimsday2details/new35.png,stimsday2details/gift19.png,stimsday2details/n19.png,stimsday2details/cn19.png,stimsday2details/ct19.png,stimsday2details/t19.png,0,10,10,10,,,,,0,0,0,0,,,,,,,,,,,,,,,,,,,,,,,1491.9134744452313,None,,,,,,,,,,,,,,,,,,,,,,,,,,,,,,,,,,,,,,,,,,,,,,,,,,,,,,,,,,,,,,,,,,,,,,,,,,,,,,,,,,,,,,,,,,,001,30,2019_Nov_26_1536,viewing,3.1.2,59.999936521120475,
north.png,stims/wedding-19.1a.mp4,stims/wedding-19.1b.mp4,stims/wedding-19.2b.mp4,stims/wedding-19.3b.mp4,stims/wedding-19.4b.mp4,stims/wedding-19.5.mp4,stimsday2details/newpainting17.png,stimsday2details/painting19.png,stimsday2details/couple19.png,stimsday2details/newperson35.png,stimsday2details/new35.png,stimsday2details/gift19.png,stimsday2details/n19.png,stimsday2details/cn19.png,stimsday2details/ct19.png,stimsday2details/t19.png,0,10,10,10,,,,,,,,,0,0,0,0,,,,,,,,,,,,,,,,,,,,,3.2302480917423964,None,1502.413264228031,1527.1796565591358,1527.1962885521352,None,1536.1962372749113,1553.1793551351875,1553.1960295252502,1576.1791365090758,1576.1956696622074,None,1600.1954241022468,None,,,,,,,,,,,,,,,,,,,,,,,,,,,,,,,,,,,,,,,,,,,,,,,,,,,,,,,,,,,,,,,,,,,,,,,,,,,,,001,30,2019_Nov_26_1536,viewing,3.1.2,59.999936521120475,
north.png,stims/wedding-19.1a.mp4,stims/wedding-19.1b.mp4,stims/wedding-19.2b.mp4,stims/wedding-19.3b.mp4,stims/wedding-19.4b.mp4,stims/wedding-19.5.mp4,stimsday2details/newpainting17.png,stimsday2details/painting19.png,stimsday2details/couple19.png,stimsday2details/newperson35.png,stimsday2details/new35.png,stimsday2details/gift19.png,stimsday2details/n19.png,stimsday2details/cn19.png,stimsday2details/ct19.png,stimsday2details/t19.png,0,10,10,10,,,,,,,,,,,,,0,0,0,0,,,,,,,,,,,,,,,,,,,,,,,,,,,,,,,None,None,None,None,None,None,None,None,None,None,None,None,None,None,None,None,None,None,None,,None,None,None,,None,None,,,,,,,,,,,,,,,,,,,,,,,,,,,,,,,,,,,,,,,,,,,,,,,,,,,001,30,2019_Nov_26_1536,viewing,3.1.2,59.999936521120475,
north.png,stims/wedding-19.1a.mp4,stims/wedding-19.1b.mp4,stims/wedding-19.2b.mp4,stims/wedding-19.3b.mp4,stims/wedding-19.4b.mp4,stims/wedding-19.5.mp4,stimsday2details/newpainting17.png,stimsday2details/painting19.png,stimsday2details/couple19.png,stimsday2details/newperson35.png,stimsday2details/new35.png,stimsday2details/gift19.png,stimsday2details/n19.png,stimsday2details/cn19.png,stimsday2details/ct19.png,stimsday2details/t19.png,0,10,10,10,,,,,,,,,,,,,,,,,,,,,,,,,,,,,,,,,,,,,,,,,,,,,,,,,,,,,,,,,,,,,,,,,,,,,,,,,2.7401838451623917e-05,None,1,1.0355005259625614,1624.811899900902,None,1624.811899900902,None,1624.811899900902,None,1626.7950878012925,None,2,0.7854160470888019,1626.7950878012925,None,1626.7950878012925,None,1628.795057700947,None,1628.795057700947,None,1,0.9023182662203908,1628.795057700947,None,2,1.1018231981433928,1630.7950313272886,None,1630.7950313272886,None,1630.7950313272886,None,1632.7950037410483,None,1632.7950037410483,None,2,0.9183848770335317,1632.7950037410483,None,1634.7949843122624,None,1634.7949843122624,None,1,1.252032307907939,1634.7949843122624,None,001,30,2019_Nov_26_1536,viewing,3.1.2,59.999936521120475,
south.png,stims/wedding-6.1a.mp4,stims/wedding-6.1b.mp4,stims/wedding-6.2b.mp4,stims/wedding-6.3a.mp4,stims/wedding-6.4b.mp4,stims/wedding-6.5.mp4,stimsday2details/newpainting18.png,stimsday2details/painting6.png,stimsday2details/newperson36.png,stimsday2details/couple6.png,stimsday2details/gift6.png,stimsday2details/new36.png,stimsday2details/cn6.png,stimsday2details/n6.png,stimsday2details/t6.png,stimsday2details/ct6.png,0,11,11,11,0,0,0,0,,,,,,,,,,,,,,,,,,,,,,,,,1636.7949592219666,None,,,,,,,,,,,,,,,,,,,,,,,,,,,,,,,,,,,,,,,,,,,,,,,,,,,,,,,,,,,,,,,,,,,,,,,,,,,,,,,,,,,,,,,,,,,,,001,30,2019_Nov_26_1536,viewing,3.1.2,59.999936521120475,
south.png,stims/wedding-6.1a.mp4,stims/wedding-6.1b.mp4,stims/wedding-6.2b.mp4,stims/wedding-6.3a.mp4,stims/wedding-6.4b.mp4,stims/wedding-6.5.mp4,stimsday2details/newpainting18.png,stimsday2details/painting6.png,stimsday2details/newperson36.png,stimsday2details/couple6.png,stimsday2details/gift6.png,stimsday2details/new36.png,stimsday2details/cn6.png,stimsday2details/n6.png,stimsday2details/t6.png,stimsday2details/ct6.png,0,11,11,11,,,,,0,0,0,0,,,,,,,,,,,,,,,,,,,,,,,None,None,,,,,,,,,,,,,,,,,,,,,,,,,,,,,,,,,,,,,,,,,,,,,,,,,,,,,,,,,,,,,,,,,,,,,,,,,,,,,,,,,,,,,,,,,,,001,30,2019_Nov_26_1536,viewing,3.1.2,59.999936521120475,
south.png,stims/wedding-6.1a.mp4,stims/wedding-6.1b.mp4,stims/wedding-6.2b.mp4,stims/wedding-6.3a.mp4,stims/wedding-6.4b.mp4,stims/wedding-6.5.mp4,stimsday2details/newpainting18.png,stimsday2details/painting6.png,stimsday2details/newperson36.png,stimsday2details/couple6.png,stimsday2details/gift6.png,stimsday2details/new36.png,stimsday2details/cn6.png,stimsday2details/n6.png,stimsday2details/t6.png,stimsday2details/ct6.png,0,11,11,11,,,,,,,,,0,0,0,0,,,,,,,,,,,,,,,,,,,,,None,None,None,None,None,None,None,None,None,None,None,None,None,None,,,,,,,,,,,,,,,,,,,,,,,,,,,,,,,,,,,,,,,,,,,,,,,,,,,,,,,,,,,,,,,,,,,,,,,,,,,,,001,30,2019_Nov_26_1536,viewing,3.1.2,59.999936521120475,
south.png,stims/wedding-6.1a.mp4,stims/wedding-6.1b.mp4,stims/wedding-6.2b.mp4,stims/wedding-6.3a.mp4,stims/wedding-6.4b.mp4,stims/wedding-6.5.mp4,stimsday2details/newpainting18.png,stimsday2details/painting6.png,stimsday2details/newperson36.png,stimsday2details/couple6.png,stimsday2details/gift6.png,stimsday2details/new36.png,stimsday2details/cn6.png,stimsday2details/n6.png,stimsday2details/t6.png,stimsday2details/ct6.png,0,11,11,11,,,,,,,,,,,,,0,0,0,0,,,,,,,,,,,,,,,,,,,,,,,,,,,,,,,2.8890743679367006,None,1650.5492073921487,1675.6610632729717,1675.6610632729717,None,1684.6609529191628,None,1701.6607917370275,1705.6607458982617,1705.6607458982617,1728.6604556208476,1728.677142442204,1732.6604051589966,1732.677093259059,None,1756.6767648588866,None,['1'],[2.8837705813348293],1700.6607554792427,1705.6607458982617,['2'],[3.718604607041925],1727.6771361269057,1732.6604051589966,,,,,,,,,,,,,,,,,,,,,,,,,,,,,,,,,,,,,,,,,,,,,,,,,,,001,30,2019_Nov_26_1536,viewing,3.1.2,59.999936521120475,
south.png,stims/wedding-6.1a.mp4,stims/wedding-6.1b.mp4,stims/wedding-6.2b.mp4,stims/wedding-6.3a.mp4,stims/wedding-6.4b.mp4,stims/wedding-6.5.mp4,stimsday2details/newpainting18.png,stimsday2details/painting6.png,stimsday2details/newperson36.png,stimsday2details/couple6.png,stimsday2details/gift6.png,stimsday2details/new36.png,stimsday2details/cn6.png,stimsday2details/n6.png,stimsday2details/t6.png,stimsday2details/ct6.png,0,11,11,11,,,,,,,,,,,,,,,,,,,,,,,,,,,,,,,,,,,,,,,,,,,,,,,,,,,,,,,,,,,,,,,,,,,,,,,,,4.207342863082886e-05,None,2,1.1687794351018965,1777.6431680400856,None,1777.6431680400856,None,1777.6431680400856,None,1779.6430729622953,None,2,0.7852556728757918,1779.6430729622953,None,1779.6430729622953,None,1781.6430473602377,None,1781.6430473602377,None,2,0.7686778223142028,1781.6430473602377,None,1,1.5519980457611382,1783.6430209008977,None,1783.6430209008977,None,1783.6430209008977,None,1785.6429886361584,None,1785.6429886361584,None,1,1.052035320084542,1785.6429886361584,None,1787.6429723822512,None,1787.6429723822512,None,2,1.4352867603302002,1787.6429723822512,None,001,30,2019_Nov_26_1536,viewing,3.1.2,59.999936521120475,
