northOrSouth,stimFile1a,stimFile1b,stimFile2,stimFile3,stimFile4,stimFile5,Qeggpainting1,Qeggpainting2,Qcharacter1,Qcharacter2,Qgift1,Qgift2,Qname1,Qname2,Qtheme1,Qtheme2,trials.thisRepN,trials.thisTrialN,trials.thisN,trials.thisIndex,South.thisRepN,South.thisTrialN,South.thisN,South.thisIndex,North.thisRepN,North.thisTrialN,North.thisN,North.thisIndex,noQtrials.thisRepN,noQtrials.thisTrialN,noQtrials.thisN,noQtrials.thisIndex,Qtrials.thisRepN,Qtrials.thisTrialN,Qtrials.thisN,Qtrials.thisIndex,text.started,text.stopped,prep_trigger.keys,prep_trigger.rt,prep_trigger.started,prep_trigger.stopped,waiting.started,waiting.stopped,trigger.keys,trigger.rt,trigger.started,trigger.stopped,southCueImage.started,southCueImage.stopped,northCueImage.started,northCueImage.stopped,trialNoQs.started,trialNoQs.stopped,vid1a.started,vid1a.stopped,vid1b.started,vid1b.stopped,vid2.started,vid2.stopped,vid3.started,vid3.stopped,vid4.started,vid4.stopped,vid5.started,vid5.stopped,ISI2.started,ISI2.stopped,vid1a_q.started,vid1a_q.stopped,vid1b_q.started,vid1b_q.stopped,vid2_q.started,vid2_q.stopped,l2q.started,l2q.stopped,vid3_q.started,vid3_q.stopped,l3q.started,l3q.stopped,vid4_q.started,vid4_q.stopped,vid5_q.started,vid5_q.stopped,key_resp_2.keys,key_resp_2.rt,key_resp_2.started,key_resp_2.stopped,key_resp_3.keys,key_resp_3.rt,key_resp_3.started,key_resp_3.stopped,ISI7.started,ISI7.stopped,nameQresp.keys,nameQresp.rt,nameQresp.started,nameQresp.stopped,nameQ1.started,nameQ1.stopped,nameQ2.started,nameQ2.stopped,eggPainting1.started,eggPainting1.stopped,eggPaintingQresp.keys,eggPaintingQresp.rt,eggPaintingQresp.started,eggPaintingQresp.stopped,eggPainting2.started,eggPainting2.stopped,character1.started,character1.stopped,character2.started,character2.stopped,Qcharacter.keys,Qcharacter.rt,Qcharacter.started,Qcharacter.stopped,themeQresp.keys,themeQresp.rt,themeQresp.started,themeQresp.stopped,themeQ1.started,themeQ1.stopped,themeQ2.started,themeQ2.stopped,gift1.started,gift1.stopped,gift2.started,gift2.stopped,giftQresp.keys,giftQresp.rt,giftQresp.started,giftQresp.stopped,northorsouth1.started,northorsouth1.stopped,northorsouth2.started,northorsouth2.stopped,northOrSouthQ.keys,northOrSouthQ.rt,northOrSouthQ.started,northOrSouthQ.stopped,session,participant,date,expName,psychopyVersion,frameRate,
,,,,,,,,,,,,,,,,,,,,,,,,,,,,,,,,,,,,,7.2505238256417215,None,g,1.2250203141011298,7.2505238256417215,None,,,,,,,,,,,,,,,,,,,,,,,,,,,,,,,,,,,,,,,,,,,,,,,,,,,,,,,,,,,,,,,,,,,,,,,,,,,,,,,,,,,,,,,,,,,,,,,,,,,,,001,10,2019_Aug_23_0929,viewing,3.1.2,60.01008199409697,
,,,,,,,,,,,,,,,,,,,,,,,,,,,,,,,,,,,,,,,,,,,8.484116351697594,None,equal,22.73840945120901,8.484116351697594,None,,,,,,,,,,,,,,,,,,,,,,,,,,,,,,,,,,,,,,,,,,,,,,,,,,,,,,,,,,,,,,,,,,,,,,,,,,,,,,,,,,,,,,,,,,,,,,,001,10,2019_Aug_23_0929,viewing,3.1.2,60.01008199409697,
south.png,stims/wedding-17.1a.mp4,stims/wedding-17.1b.mp4,stims/wedding-17.2b.mp4,stims/wedding-17.3a.mp4,stims/wedding-17.4b.mp4,stims/wedding-17.5.mp4,stimsday2details/newpainting13.png,stimsday2details/painting17.png,stimsday2details/newperson25.png,stimsday2details/couple17.png,stimsday2details/new25.png,stimsday2details/gift17.png,stimsday2details/cn17.png,stimsday2details/n17.png,stimsday2details/t17.png,stimsday2details/ct17.png,0,0,0,0,0,0,0,0,,,,,,,,,,,,,,,,,,,,,,,,,31.336167722940445,None,,,,,,,,,,,,,,,,,,,,,,,,,,,,,,,,,,,,,,,,,,,,,,,,,,,,,,,,,,,,,,,,,,,,,,,,,,,,,,,,,,,,,,,,,,,,,001,10,2019_Aug_23_0929,viewing,3.1.2,60.01008199409697,
south.png,stims/wedding-17.1a.mp4,stims/wedding-17.1b.mp4,stims/wedding-17.2b.mp4,stims/wedding-17.3a.mp4,stims/wedding-17.4b.mp4,stims/wedding-17.5.mp4,stimsday2details/newpainting13.png,stimsday2details/painting17.png,stimsday2details/newperson25.png,stimsday2details/couple17.png,stimsday2details/new25.png,stimsday2details/gift17.png,stimsday2details/cn17.png,stimsday2details/n17.png,stimsday2details/t17.png,stimsday2details/ct17.png,0,0,0,0,,,,,0,0,0,0,,,,,,,,,,,,,,,,,,,,,,,None,None,,,,,,,,,,,,,,,,,,,,,,,,,,,,,,,,,,,,,,,,,,,,,,,,,,,,,,,,,,,,,,,,,,,,,,,,,,,,,,,,,,,,,,,,,,,001,10,2019_Aug_23_0929,viewing,3.1.2,60.01008199409697,
south.png,stims/wedding-17.1a.mp4,stims/wedding-17.1b.mp4,stims/wedding-17.2b.mp4,stims/wedding-17.3a.mp4,stims/wedding-17.4b.mp4,stims/wedding-17.5.mp4,stimsday2details/newpainting13.png,stimsday2details/painting17.png,stimsday2details/newperson25.png,stimsday2details/couple17.png,stimsday2details/new25.png,stimsday2details/gift17.png,stimsday2details/cn17.png,stimsday2details/n17.png,stimsday2details/t17.png,stimsday2details/ct17.png,0,0,0,0,,,,,,,,,0,0,0,0,,,,,,,,,,,,,,,,,,,,,None,None,None,None,None,None,None,None,None,None,None,None,None,None,,,,,,,,,,,,,,,,,,,,,,,,,,,,,,,,,,,,,,,,,,,,,,,,,,,,,,,,,,,,,,,,,,,,,,,,,,,,,001,10,2019_Aug_23_0929,viewing,3.1.2,60.01008199409697,
south.png,stims/wedding-17.1a.mp4,stims/wedding-17.1b.mp4,stims/wedding-17.2b.mp4,stims/wedding-17.3a.mp4,stims/wedding-17.4b.mp4,stims/wedding-17.5.mp4,stimsday2details/newpainting13.png,stimsday2details/painting17.png,stimsday2details/newperson25.png,stimsday2details/couple17.png,stimsday2details/new25.png,stimsday2details/gift17.png,stimsday2details/cn17.png,stimsday2details/n17.png,stimsday2details/t17.png,stimsday2details/ct17.png,0,0,0,0,,,,,,,,,,,,,0,0,0,0,,,,,,,,,,,,,,,,,,,,,,,,,,,,,,,2.735119136981666,None,44.667080079670995,None,69.9499364355579,None,78.93377563357353,None,95.93686936981976,99.93608120176941,99.94951561186463,None,122.93269174173474,126.93254942260683,126.93254942260683,None,150.9333488829434,None,['1'],[1.7564098071306944],94.93340916978195,99.93608120176941,['2'],[1.9183586640283465],121.94980009458959,126.93254942260683,,,,,,,,,,,,,,,,,,,,,,,,,,,,,,,,,,,,,,,,,,,,,,,,,,,001,10,2019_Aug_23_0929,viewing,3.1.2,60.01008199409697,
south.png,stims/wedding-17.1a.mp4,stims/wedding-17.1b.mp4,stims/wedding-17.2b.mp4,stims/wedding-17.3a.mp4,stims/wedding-17.4b.mp4,stims/wedding-17.5.mp4,stimsday2details/newpainting13.png,stimsday2details/painting17.png,stimsday2details/newperson25.png,stimsday2details/couple17.png,stimsday2details/new25.png,stimsday2details/gift17.png,stimsday2details/cn17.png,stimsday2details/n17.png,stimsday2details/t17.png,stimsday2details/ct17.png,0,0,0,0,,,,,,,,,,,,,,,,,,,,,,,,,,,,,,,,,,,,,,,,,,,,,,,,,,,,,,,,,,,,,,,,,,,,,,,,,2.4273991584777832e-05,None,2,0.6350956531241536,171.5318620367907,None,171.5318620367907,None,171.5318620367907,None,173.51505176583305,None,2,0.7193469237536192,173.51505176583305,None,173.51505176583305,None,175.51926378393546,None,175.51926378393546,None,2,0.7638954580761492,175.51926378393546,None,1,0.8016971983015537,177.51557223172858,None,177.51557223172858,None,177.51557223172858,None,179.51870956085622,None,179.51870956085622,None,2,0.6148356711491942,179.51870956085622,None,181.51483021862805,None,181.51483021862805,None,2,0.634718201123178,181.51483021862805,None,001,10,2019_Aug_23_0929,viewing,3.1.2,60.01008199409697,
north.png,stims/wedding-2.1a.mp4,stims/wedding-2.1b.mp4,stims/wedding-2.2b.mp4,stims/wedding-2.3b.mp4,stims/wedding-2.4b.mp4,stims/wedding-2.5.mp4,stimsday2details/painting2.png,stimsday2details/newpainting14.png,stimsday2details/couple2.png,stimsday2details/newperson26.png,stimsday2details/new26.png,stimsday2details/gift2.png,stimsday2details/n2.png,stimsday2details/cn2.png,stimsday2details/ct2.png,stimsday2details/t2.png,0,1,1,1,0,0,0,0,,,,,,,,,,,,,,,,,,,,,,,,,None,None,,,,,,,,,,,,,,,,,,,,,,,,,,,,,,,,,,,,,,,,,,,,,,,,,,,,,,,,,,,,,,,,,,,,,,,,,,,,,,,,,,,,,,,,,,,,,001,10,2019_Aug_23_0929,viewing,3.1.2,60.01008199409697,
north.png,stims/wedding-2.1a.mp4,stims/wedding-2.1b.mp4,stims/wedding-2.2b.mp4,stims/wedding-2.3b.mp4,stims/wedding-2.4b.mp4,stims/wedding-2.5.mp4,stimsday2details/painting2.png,stimsday2details/newpainting14.png,stimsday2details/couple2.png,stimsday2details/newperson26.png,stimsday2details/new26.png,stimsday2details/gift2.png,stimsday2details/n2.png,stimsday2details/cn2.png,stimsday2details/ct2.png,stimsday2details/t2.png,0,1,1,1,,,,,0,0,0,0,,,,,,,,,,,,,,,,,,,,,,,183.55220567481592,None,,,,,,,,,,,,,,,,,,,,,,,,,,,,,,,,,,,,,,,,,,,,,,,,,,,,,,,,,,,,,,,,,,,,,,,,,,,,,,,,,,,,,,,,,,,001,10,2019_Aug_23_0929,viewing,3.1.2,60.01008199409697,
north.png,stims/wedding-2.1a.mp4,stims/wedding-2.1b.mp4,stims/wedding-2.2b.mp4,stims/wedding-2.3b.mp4,stims/wedding-2.4b.mp4,stims/wedding-2.5.mp4,stimsday2details/painting2.png,stimsday2details/newpainting14.png,stimsday2details/couple2.png,stimsday2details/newperson26.png,stimsday2details/new26.png,stimsday2details/gift2.png,stimsday2details/n2.png,stimsday2details/cn2.png,stimsday2details/ct2.png,stimsday2details/t2.png,0,1,1,1,,,,,,,,,0,0,0,0,,,,,,,,,,,,,,,,,,,,,3.1207660450600088,None,193.7313834335655,None,218.61494134599343,None,227.61499125976115,None,244.61386635899544,267.6145878438838,267.63055860670283,291.5961442985572,291.61364819388837,None,,,,,,,,,,,,,,,,,,,,,,,,,,,,,,,,,,,,,,,,,,,,,,,,,,,,,,,,,,,,,,,,,,,,,,,,,,,,,001,10,2019_Aug_23_0929,viewing,3.1.2,60.01008199409697,
north.png,stims/wedding-2.1a.mp4,stims/wedding-2.1b.mp4,stims/wedding-2.2b.mp4,stims/wedding-2.3b.mp4,stims/wedding-2.4b.mp4,stims/wedding-2.5.mp4,stimsday2details/painting2.png,stimsday2details/newpainting14.png,stimsday2details/couple2.png,stimsday2details/newperson26.png,stimsday2details/new26.png,stimsday2details/gift2.png,stimsday2details/n2.png,stimsday2details/cn2.png,stimsday2details/ct2.png,stimsday2details/t2.png,0,1,1,1,,,,,,,,,,,,,0,0,0,0,,,,,,,,,,,,,,,,,,,,,,,,,,,,,,,None,None,None,None,None,None,None,None,None,None,None,None,None,None,None,None,None,None,None,,None,None,None,,None,None,,,,,,,,,,,,,,,,,,,,,,,,,,,,,,,,,,,,,,,,,,,,,,,,,,,001,10,2019_Aug_23_0929,viewing,3.1.2,60.01008199409697,
north.png,stims/wedding-2.1a.mp4,stims/wedding-2.1b.mp4,stims/wedding-2.2b.mp4,stims/wedding-2.3b.mp4,stims/wedding-2.4b.mp4,stims/wedding-2.5.mp4,stimsday2details/painting2.png,stimsday2details/newpainting14.png,stimsday2details/couple2.png,stimsday2details/newperson26.png,stimsday2details/new26.png,stimsday2details/gift2.png,stimsday2details/n2.png,stimsday2details/cn2.png,stimsday2details/ct2.png,stimsday2details/t2.png,0,1,1,1,,,,,,,,,,,,,,,,,,,,,,,,,,,,,,,,,,,,,,,,,,,,,,,,,,,,,,,,,,,,,,,,,,,,,,,,,2.7403701096773148e-05,None,1,0.5356416967697442,315.2134960256517,None,315.2134960256517,None,315.2134960256517,None,317.19573174091056,None,1,0.6186948688700795,317.19573174091056,None,317.19573174091056,None,319.19611847167835,None,319.19611847167835,None,1,0.6355097568593919,319.19611847167835,None,2,0.6723428117111325,321.1962009756826,None,321.1962009756826,None,321.1962009756826,None,323.1968000009656,None,323.1968000009656,None,2,0.7067761938087642,323.1968000009656,None,325.1998494695872,None,325.1998494695872,None,1,0.681184081826359,325.1998494695872,None,001,10,2019_Aug_23_0929,viewing,3.1.2,60.01008199409697,
north.png,stims/wedding-19.1a.mp4,stims/wedding-19.1b.mp4,stims/wedding-19.2a.mp4,stims/wedding-19.3a.mp4,stims/wedding-19.4a.mp4,stims/wedding-19.5.mp4,stimsday2details/newegg13.png,stimsday2details/egg19.png,stimsday2details/couple19.png,stimsday2details/newperson27.png,stimsday2details/new27.png,stimsday2details/gift19.png,stimsday2details/n19.png,stimsday2details/cn19.png,stimsday2details/ct19.png,stimsday2details/t19.png,0,2,2,2,0,0,0,0,,,,,,,,,,,,,,,,,,,,,,,,,None,None,,,,,,,,,,,,,,,,,,,,,,,,,,,,,,,,,,,,,,,,,,,,,,,,,,,,,,,,,,,,,,,,,,,,,,,,,,,,,,,,,,,,,,,,,,,,,001,10,2019_Aug_23_0929,viewing,3.1.2,60.01008199409697,
north.png,stims/wedding-19.1a.mp4,stims/wedding-19.1b.mp4,stims/wedding-19.2a.mp4,stims/wedding-19.3a.mp4,stims/wedding-19.4a.mp4,stims/wedding-19.5.mp4,stimsday2details/newegg13.png,stimsday2details/egg19.png,stimsday2details/couple19.png,stimsday2details/newperson27.png,stimsday2details/new27.png,stimsday2details/gift19.png,stimsday2details/n19.png,stimsday2details/cn19.png,stimsday2details/ct19.png,stimsday2details/t19.png,0,2,2,2,,,,,0,0,0,0,,,,,,,,,,,,,,,,,,,,,,,327.26255911169574,None,,,,,,,,,,,,,,,,,,,,,,,,,,,,,,,,,,,,,,,,,,,,,,,,,,,,,,,,,,,,,,,,,,,,,,,,,,,,,,,,,,,,,,,,,,,001,10,2019_Aug_23_0929,viewing,3.1.2,60.01008199409697,
north.png,stims/wedding-19.1a.mp4,stims/wedding-19.1b.mp4,stims/wedding-19.2a.mp4,stims/wedding-19.3a.mp4,stims/wedding-19.4a.mp4,stims/wedding-19.5.mp4,stimsday2details/newegg13.png,stimsday2details/egg19.png,stimsday2details/couple19.png,stimsday2details/newperson27.png,stimsday2details/new27.png,stimsday2details/gift19.png,stimsday2details/n19.png,stimsday2details/cn19.png,stimsday2details/ct19.png,stimsday2details/t19.png,0,2,2,2,,,,,,,,,0,0,0,0,,,,,,,,,,,,,,,,,,,,,3.1041760006919503,None,337.4464693199843,362.3455002135597,362.3455002135597,None,371.345423753839,388.3449412919581,388.3449412919581,None,411.3458836507052,None,435.34545230772346,None,,,,,,,,,,,,,,,,,,,,,,,,,,,,,,,,,,,,,,,,,,,,,,,,,,,,,,,,,,,,,,,,,,,,,,,,,,,,,001,10,2019_Aug_23_0929,viewing,3.1.2,60.01008199409697,
north.png,stims/wedding-19.1a.mp4,stims/wedding-19.1b.mp4,stims/wedding-19.2a.mp4,stims/wedding-19.3a.mp4,stims/wedding-19.4a.mp4,stims/wedding-19.5.mp4,stimsday2details/newegg13.png,stimsday2details/egg19.png,stimsday2details/couple19.png,stimsday2details/newperson27.png,stimsday2details/new27.png,stimsday2details/gift19.png,stimsday2details/n19.png,stimsday2details/cn19.png,stimsday2details/ct19.png,stimsday2details/t19.png,0,2,2,2,,,,,,,,,,,,,0,0,0,0,,,,,,,,,,,,,,,,,,,,,,,,,,,,,,,None,None,None,None,None,None,None,None,None,None,None,None,None,None,None,None,None,None,None,,None,None,None,,None,None,,,,,,,,,,,,,,,,,,,,,,,,,,,,,,,,,,,,,,,,,,,,,,,,,,,001,10,2019_Aug_23_0929,viewing,3.1.2,60.01008199409697,
north.png,stims/wedding-19.1a.mp4,stims/wedding-19.1b.mp4,stims/wedding-19.2a.mp4,stims/wedding-19.3a.mp4,stims/wedding-19.4a.mp4,stims/wedding-19.5.mp4,stimsday2details/newegg13.png,stimsday2details/egg19.png,stimsday2details/couple19.png,stimsday2details/newperson27.png,stimsday2details/new27.png,stimsday2details/gift19.png,stimsday2details/n19.png,stimsday2details/cn19.png,stimsday2details/ct19.png,stimsday2details/t19.png,0,2,2,2,,,,,,,,,,,,,,,,,,,,,,,,,,,,,,,,,,,,,,,,,,,,,,,,,,,,,,,,,,,,,,,,,,,,,,,,,3.154296427965164e-05,None,1,0.5686737140640616,459.4275746778585,None,459.4275746778585,None,459.4275746778585,None,461.4271624968387,None,2,0.7355130258947611,461.4271624968387,None,461.4271624968387,None,463.43223998881876,None,463.43223998881876,None,1,0.6805619071237743,463.43223998881876,None,2,0.8718688557855785,465.4286965900101,None,465.4286965900101,None,465.4286965900101,None,467.4331234996207,None,467.4331234996207,None,2,0.7677210033871233,467.4331234996207,None,469.43677461287007,None,469.43677461287007,None,1,0.7129629850387573,469.43677461287007,None,001,10,2019_Aug_23_0929,viewing,3.1.2,60.01008199409697,
south.png,stims/wedding-34.1a.mp4,stims/wedding-34.1b.mp4,stims/wedding-34.2a.mp4,stims/wedding-34.3b.mp4,stims/wedding-34.4a.mp4,stims/wedding-34.5.mp4,stimsday2details/egg34.png,stimsday2details/newegg14.png,stimsday2details/newperson28.png,stimsday2details/couple34.png,stimsday2details/gift34.png,stimsday2details/new28.png,stimsday2details/n34.png,stimsday2details/cn34.png,stimsday2details/t34.png,stimsday2details/ct34.png,0,3,3,3,0,0,0,0,,,,,,,,,,,,,,,,,,,,,,,,,471.43187946174294,None,,,,,,,,,,,,,,,,,,,,,,,,,,,,,,,,,,,,,,,,,,,,,,,,,,,,,,,,,,,,,,,,,,,,,,,,,,,,,,,,,,,,,,,,,,,,,001,10,2019_Aug_23_0929,viewing,3.1.2,60.01008199409697,
south.png,stims/wedding-34.1a.mp4,stims/wedding-34.1b.mp4,stims/wedding-34.2a.mp4,stims/wedding-34.3b.mp4,stims/wedding-34.4a.mp4,stims/wedding-34.5.mp4,stimsday2details/egg34.png,stimsday2details/newegg14.png,stimsday2details/newperson28.png,stimsday2details/couple34.png,stimsday2details/gift34.png,stimsday2details/new28.png,stimsday2details/n34.png,stimsday2details/cn34.png,stimsday2details/t34.png,stimsday2details/ct34.png,0,3,3,3,,,,,0,0,0,0,,,,,,,,,,,,,,,,,,,,,,,None,None,,,,,,,,,,,,,,,,,,,,,,,,,,,,,,,,,,,,,,,,,,,,,,,,,,,,,,,,,,,,,,,,,,,,,,,,,,,,,,,,,,,,,,,,,,,001,10,2019_Aug_23_0929,viewing,3.1.2,60.01008199409697,
south.png,stims/wedding-34.1a.mp4,stims/wedding-34.1b.mp4,stims/wedding-34.2a.mp4,stims/wedding-34.3b.mp4,stims/wedding-34.4a.mp4,stims/wedding-34.5.mp4,stimsday2details/egg34.png,stimsday2details/newegg14.png,stimsday2details/newperson28.png,stimsday2details/couple34.png,stimsday2details/gift34.png,stimsday2details/new28.png,stimsday2details/n34.png,stimsday2details/cn34.png,stimsday2details/t34.png,stimsday2details/ct34.png,0,3,3,3,,,,,,,,,0,0,0,0,,,,,,,,,,,,,,,,,,,,,3.2023781160824,None,481.8104382418096,506.6141532557085,506.62723299860954,515.6152351605706,515.6276960056275,None,532.6284258598462,555.6104334807023,555.6274036876857,579.6140504018404,579.6271132756956,None,,,,,,,,,,,,,,,,,,,,,,,,,,,,,,,,,,,,,,,,,,,,,,,,,,,,,,,,,,,,,,,,,,,,,,,,,,,,,001,10,2019_Aug_23_0929,viewing,3.1.2,60.01008199409697,
south.png,stims/wedding-34.1a.mp4,stims/wedding-34.1b.mp4,stims/wedding-34.2a.mp4,stims/wedding-34.3b.mp4,stims/wedding-34.4a.mp4,stims/wedding-34.5.mp4,stimsday2details/egg34.png,stimsday2details/newegg14.png,stimsday2details/newperson28.png,stimsday2details/couple34.png,stimsday2details/gift34.png,stimsday2details/new28.png,stimsday2details/n34.png,stimsday2details/cn34.png,stimsday2details/t34.png,stimsday2details/ct34.png,0,3,3,3,,,,,,,,,,,,,0,0,0,0,,,,,,,,,,,,,,,,,,,,,,,,,,,,,,,None,None,None,None,None,None,None,None,None,None,None,None,None,None,None,None,None,None,None,,None,None,None,,None,None,,,,,,,,,,,,,,,,,,,,,,,,,,,,,,,,,,,,,,,,,,,,,,,,,,,001,10,2019_Aug_23_0929,viewing,3.1.2,60.01008199409697,
south.png,stims/wedding-34.1a.mp4,stims/wedding-34.1b.mp4,stims/wedding-34.2a.mp4,stims/wedding-34.3b.mp4,stims/wedding-34.4a.mp4,stims/wedding-34.5.mp4,stimsday2details/egg34.png,stimsday2details/newegg14.png,stimsday2details/newperson28.png,stimsday2details/couple34.png,stimsday2details/gift34.png,stimsday2details/new28.png,stimsday2details/n34.png,stimsday2details/cn34.png,stimsday2details/t34.png,stimsday2details/ct34.png,0,3,3,3,,,,,,,,,,,,,,,,,,,,,,,,,,,,,,,,,,,,,,,,,,,,,,,,,,,,,,,,,,,,,,,,,,,,,,,,,4.399940371513367e-05,None,1,0.6373357228003442,603.1122366846539,None,603.1122366846539,None,603.1122366846539,None,605.1099369707517,None,1,0.5060275951400399,605.1099369707517,None,605.1099369707517,None,607.1088123759255,None,607.1088123759255,None,2,0.48579542012885213,607.1088123759255,None,1,0.7402286329306662,609.1090716565959,None,609.1090716565959,None,609.1090716565959,None,611.1101395636797,None,611.1101395636797,None,1,0.7431418639607728,611.1101395636797,None,613.1136642387137,None,613.1136642387137,None,2,0.889361921697855,613.1136642387137,None,001,10,2019_Aug_23_0929,viewing,3.1.2,60.01008199409697,
south.png,stims/wedding-28.1a.mp4,stims/wedding-28.1b.mp4,stims/wedding-28.2b.mp4,stims/wedding-28.3a.mp4,stims/wedding-28.4b.mp4,stims/wedding-28.5.mp4,stimsday2details/painting28.png,stimsday2details/newpainting15.png,stimsday2details/newperson29.png,stimsday2details/couple28.png,stimsday2details/gift28.png,stimsday2details/new29.png,stimsday2details/cn28.png,stimsday2details/n28.png,stimsday2details/t28.png,stimsday2details/ct28.png,0,4,4,4,0,0,0,0,,,,,,,,,,,,,,,,,,,,,,,,,615.1142206299119,None,,,,,,,,,,,,,,,,,,,,,,,,,,,,,,,,,,,,,,,,,,,,,,,,,,,,,,,,,,,,,,,,,,,,,,,,,,,,,,,,,,,,,,,,,,,,,001,10,2019_Aug_23_0929,viewing,3.1.2,60.01008199409697,
south.png,stims/wedding-28.1a.mp4,stims/wedding-28.1b.mp4,stims/wedding-28.2b.mp4,stims/wedding-28.3a.mp4,stims/wedding-28.4b.mp4,stims/wedding-28.5.mp4,stimsday2details/painting28.png,stimsday2details/newpainting15.png,stimsday2details/newperson29.png,stimsday2details/couple28.png,stimsday2details/gift28.png,stimsday2details/new29.png,stimsday2details/cn28.png,stimsday2details/n28.png,stimsday2details/t28.png,stimsday2details/ct28.png,0,4,4,4,,,,,0,0,0,0,,,,,,,,,,,,,,,,,,,,,,,None,None,,,,,,,,,,,,,,,,,,,,,,,,,,,,,,,,,,,,,,,,,,,,,,,,,,,,,,,,,,,,,,,,,,,,,,,,,,,,,,,,,,,,,,,,,,,001,10,2019_Aug_23_0929,viewing,3.1.2,60.01008199409697,
south.png,stims/wedding-28.1a.mp4,stims/wedding-28.1b.mp4,stims/wedding-28.2b.mp4,stims/wedding-28.3a.mp4,stims/wedding-28.4b.mp4,stims/wedding-28.5.mp4,stimsday2details/painting28.png,stimsday2details/newpainting15.png,stimsday2details/newperson29.png,stimsday2details/couple28.png,stimsday2details/gift28.png,stimsday2details/new29.png,stimsday2details/cn28.png,stimsday2details/n28.png,stimsday2details/t28.png,stimsday2details/ct28.png,0,4,4,4,,,,,,,,,0,0,0,0,,,,,,,,,,,,,,,,,,,,,2.87718542618677,None,625.2095044329762,650.3421747996472,650.3421747996472,None,659.3471442898735,None,676.3467449247837,699.3296040669084,699.3460557525977,None,723.3409338737838,None,,,,,,,,,,,,,,,,,,,,,,,,,,,,,,,,,,,,,,,,,,,,,,,,,,,,,,,,,,,,,,,,,,,,,,,,,,,,,001,10,2019_Aug_23_0929,viewing,3.1.2,60.01008199409697,
south.png,stims/wedding-28.1a.mp4,stims/wedding-28.1b.mp4,stims/wedding-28.2b.mp4,stims/wedding-28.3a.mp4,stims/wedding-28.4b.mp4,stims/wedding-28.5.mp4,stimsday2details/painting28.png,stimsday2details/newpainting15.png,stimsday2details/newperson29.png,stimsday2details/couple28.png,stimsday2details/gift28.png,stimsday2details/new29.png,stimsday2details/cn28.png,stimsday2details/n28.png,stimsday2details/t28.png,stimsday2details/ct28.png,0,4,4,4,,,,,,,,,,,,,0,0,0,0,,,,,,,,,,,,,,,,,,,,,,,,,,,,,,,None,None,None,None,None,None,None,None,None,None,None,None,None,None,None,None,None,None,None,,None,None,None,,None,None,,,,,,,,,,,,,,,,,,,,,,,,,,,,,,,,,,,,,,,,,,,,,,,,,,,001,10,2019_Aug_23_0929,viewing,3.1.2,60.01008199409697,
south.png,stims/wedding-28.1a.mp4,stims/wedding-28.1b.mp4,stims/wedding-28.2b.mp4,stims/wedding-28.3a.mp4,stims/wedding-28.4b.mp4,stims/wedding-28.5.mp4,stimsday2details/painting28.png,stimsday2details/newpainting15.png,stimsday2details/newperson29.png,stimsday2details/couple28.png,stimsday2details/gift28.png,stimsday2details/new29.png,stimsday2details/cn28.png,stimsday2details/n28.png,stimsday2details/t28.png,stimsday2details/ct28.png,0,4,4,4,,,,,,,,,,,,,,,,,,,,,,,,,,,,,,,,,,,,,,,,,,,,,,,,,,,,,,,,,,,,,,,,,,,,,,,,,3.452785313129425e-05,None,2,0.7025589710101485,747.4239027798176,None,747.4239027798176,None,747.4239027798176,None,749.4085214529186,None,1,0.5565503598190844,749.4085214529186,None,749.4085214529186,None,751.4081782866269,None,751.4081782866269,None,2,0.6350041539408267,751.4081782866269,None,1,0.7818381651304662,753.412164256908,None,753.412164256908,None,753.412164256908,None,755.4072636426426,None,755.4072636426426,None,1,0.5902161910198629,755.4072636426426,None,757.4071646928787,None,757.4071646928787,None,2,0.5529471430927515,757.4071646928787,None,001,10,2019_Aug_23_0929,viewing,3.1.2,60.01008199409697,
north.png,stims/wedding-6.1a.mp4,stims/wedding-6.1b.mp4,stims/wedding-6.2b.mp4,stims/wedding-6.3b.mp4,stims/wedding-6.4b.mp4,stims/wedding-6.5.mp4,stimsday2details/newpainting16.png,stimsday2details/painting6.png,stimsday2details/couple6.png,stimsday2details/newperson30.png,stimsday2details/gift6.png,stimsday2details/new30.png,stimsday2details/n6.png,stimsday2details/cn6.png,stimsday2details/ct6.png,stimsday2details/t6.png,0,5,5,5,0,0,0,0,,,,,,,,,,,,,,,,,,,,,,,,,None,None,,,,,,,,,,,,,,,,,,,,,,,,,,,,,,,,,,,,,,,,,,,,,,,,,,,,,,,,,,,,,,,,,,,,,,,,,,,,,,,,,,,,,,,,,,,,,001,10,2019_Aug_23_0929,viewing,3.1.2,60.01008199409697,
north.png,stims/wedding-6.1a.mp4,stims/wedding-6.1b.mp4,stims/wedding-6.2b.mp4,stims/wedding-6.3b.mp4,stims/wedding-6.4b.mp4,stims/wedding-6.5.mp4,stimsday2details/newpainting16.png,stimsday2details/painting6.png,stimsday2details/couple6.png,stimsday2details/newperson30.png,stimsday2details/gift6.png,stimsday2details/new30.png,stimsday2details/n6.png,stimsday2details/cn6.png,stimsday2details/ct6.png,stimsday2details/t6.png,0,5,5,5,,,,,0,0,0,0,,,,,,,,,,,,,,,,,,,,,,,759.5416202805936,None,,,,,,,,,,,,,,,,,,,,,,,,,,,,,,,,,,,,,,,,,,,,,,,,,,,,,,,,,,,,,,,,,,,,,,,,,,,,,,,,,,,,,,,,,,,001,10,2019_Aug_23_0929,viewing,3.1.2,60.01008199409697,
north.png,stims/wedding-6.1a.mp4,stims/wedding-6.1b.mp4,stims/wedding-6.2b.mp4,stims/wedding-6.3b.mp4,stims/wedding-6.4b.mp4,stims/wedding-6.5.mp4,stimsday2details/newpainting16.png,stimsday2details/painting6.png,stimsday2details/couple6.png,stimsday2details/newperson30.png,stimsday2details/gift6.png,stimsday2details/new30.png,stimsday2details/n6.png,stimsday2details/cn6.png,stimsday2details/ct6.png,stimsday2details/t6.png,0,5,5,5,,,,,,,,,0,0,0,0,,,,,,,,,,,,,,,,,,,,,3.00560621637851,None,769.6904389709234,794.6777505795471,794.6909168516286,None,803.6908653560095,None,820.6908435397781,843.6760635515675,843.6924294708297,None,867.6941192396916,None,,,,,,,,,,,,,,,,,,,,,,,,,,,,,,,,,,,,,,,,,,,,,,,,,,,,,,,,,,,,,,,,,,,,,,,,,,,,,001,10,2019_Aug_23_0929,viewing,3.1.2,60.01008199409697,
north.png,stims/wedding-6.1a.mp4,stims/wedding-6.1b.mp4,stims/wedding-6.2b.mp4,stims/wedding-6.3b.mp4,stims/wedding-6.4b.mp4,stims/wedding-6.5.mp4,stimsday2details/newpainting16.png,stimsday2details/painting6.png,stimsday2details/couple6.png,stimsday2details/newperson30.png,stimsday2details/gift6.png,stimsday2details/new30.png,stimsday2details/n6.png,stimsday2details/cn6.png,stimsday2details/ct6.png,stimsday2details/t6.png,0,5,5,5,,,,,,,,,,,,,0,0,0,0,,,,,,,,,,,,,,,,,,,,,,,,,,,,,,,None,None,None,None,None,None,None,None,None,None,None,None,None,None,None,None,None,None,None,,None,None,None,,None,None,,,,,,,,,,,,,,,,,,,,,,,,,,,,,,,,,,,,,,,,,,,,,,,,,,,001,10,2019_Aug_23_0929,viewing,3.1.2,60.01008199409697,
north.png,stims/wedding-6.1a.mp4,stims/wedding-6.1b.mp4,stims/wedding-6.2b.mp4,stims/wedding-6.3b.mp4,stims/wedding-6.4b.mp4,stims/wedding-6.5.mp4,stimsday2details/newpainting16.png,stimsday2details/painting6.png,stimsday2details/couple6.png,stimsday2details/newperson30.png,stimsday2details/gift6.png,stimsday2details/new30.png,stimsday2details/n6.png,stimsday2details/cn6.png,stimsday2details/ct6.png,stimsday2details/t6.png,0,5,5,5,,,,,,,,,,,,,,,,,,,,,,,,,,,,,,,,,,,,,,,,,,,,,,,,,,,,,,,,,,,,,,,,,,,,,,,,,2.9333867132663727e-05,None,1,0.7227922021411359,891.5057811536826,None,891.5057811536826,None,891.5057811536826,None,893.5056962068193,None,2,0.751747143920511,893.5056962068193,None,893.5056962068193,None,895.5057876659557,None,895.5057876659557,None,1,0.6017443183809519,895.5057876659557,None,2,0.7183587411418557,897.494190139696,None,897.494190139696,None,897.494190139696,None,899.4936222378165,None,899.4936222378165,None,1,0.5690012611448765,899.4936222378165,None,901.4945434206165,None,901.4945434206165,None,1,0.9337688158266246,901.4945434206165,None,001,10,2019_Aug_23_0929,viewing,3.1.2,60.01008199409697,
north.png,stims/wedding-20.1a.mp4,stims/wedding-20.1b.mp4,stims/wedding-20.2b.mp4,stims/wedding-20.3b.mp4,stims/wedding-20.4b.mp4,stims/wedding-20.5.mp4,stimsday2details/newpainting17.png,stimsday2details/painting20.png,stimsday2details/newperson31.png,stimsday2details/couple20.png,stimsday2details/gift20.png,stimsday2details/new31.png,stimsday2details/n20.png,stimsday2details/cn20.png,stimsday2details/t20.png,stimsday2details/ct20.png,0,6,6,6,0,0,0,0,,,,,,,,,,,,,,,,,,,,,,,,,None,None,,,,,,,,,,,,,,,,,,,,,,,,,,,,,,,,,,,,,,,,,,,,,,,,,,,,,,,,,,,,,,,,,,,,,,,,,,,,,,,,,,,,,,,,,,,,,001,10,2019_Aug_23_0929,viewing,3.1.2,60.01008199409697,
north.png,stims/wedding-20.1a.mp4,stims/wedding-20.1b.mp4,stims/wedding-20.2b.mp4,stims/wedding-20.3b.mp4,stims/wedding-20.4b.mp4,stims/wedding-20.5.mp4,stimsday2details/newpainting17.png,stimsday2details/painting20.png,stimsday2details/newperson31.png,stimsday2details/couple20.png,stimsday2details/gift20.png,stimsday2details/new31.png,stimsday2details/n20.png,stimsday2details/cn20.png,stimsday2details/t20.png,stimsday2details/ct20.png,0,6,6,6,,,,,0,0,0,0,,,,,,,,,,,,,,,,,,,,,,,903.6391059728339,None,,,,,,,,,,,,,,,,,,,,,,,,,,,,,,,,,,,,,,,,,,,,,,,,,,,,,,,,,,,,,,,,,,,,,,,,,,,,,,,,,,,,,,,,,,,001,10,2019_Aug_23_0929,viewing,3.1.2,60.01008199409697,
north.png,stims/wedding-20.1a.mp4,stims/wedding-20.1b.mp4,stims/wedding-20.2b.mp4,stims/wedding-20.3b.mp4,stims/wedding-20.4b.mp4,stims/wedding-20.5.mp4,stimsday2details/newpainting17.png,stimsday2details/painting20.png,stimsday2details/newperson31.png,stimsday2details/couple20.png,stimsday2details/gift20.png,stimsday2details/new31.png,stimsday2details/n20.png,stimsday2details/cn20.png,stimsday2details/t20.png,stimsday2details/ct20.png,0,6,6,6,,,,,,,,,0,0,0,0,,,,,,,,,,,,,,,,,,,,,2.9716676641255617,None,913.7727548736148,938.805618182756,938.805618182756,None,947.8046327359043,None,964.8045848049223,987.8082590796985,987.82095651282,None,1011.821705411654,None,,,,,,,,,,,,,,,,,,,,,,,,,,,,,,,,,,,,,,,,,,,,,,,,,,,,,,,,,,,,,,,,,,,,,,,,,,,,,001,10,2019_Aug_23_0929,viewing,3.1.2,60.01008199409697,
north.png,stims/wedding-20.1a.mp4,stims/wedding-20.1b.mp4,stims/wedding-20.2b.mp4,stims/wedding-20.3b.mp4,stims/wedding-20.4b.mp4,stims/wedding-20.5.mp4,stimsday2details/newpainting17.png,stimsday2details/painting20.png,stimsday2details/newperson31.png,stimsday2details/couple20.png,stimsday2details/gift20.png,stimsday2details/new31.png,stimsday2details/n20.png,stimsday2details/cn20.png,stimsday2details/t20.png,stimsday2details/ct20.png,0,6,6,6,,,,,,,,,,,,,0,0,0,0,,,,,,,,,,,,,,,,,,,,,,,,,,,,,,,None,None,None,None,None,None,None,None,None,None,None,None,None,None,None,None,None,None,None,,None,None,None,,None,None,,,,,,,,,,,,,,,,,,,,,,,,,,,,,,,,,,,,,,,,,,,,,,,,,,,001,10,2019_Aug_23_0929,viewing,3.1.2,60.01008199409697,
north.png,stims/wedding-20.1a.mp4,stims/wedding-20.1b.mp4,stims/wedding-20.2b.mp4,stims/wedding-20.3b.mp4,stims/wedding-20.4b.mp4,stims/wedding-20.5.mp4,stimsday2details/newpainting17.png,stimsday2details/painting20.png,stimsday2details/newperson31.png,stimsday2details/couple20.png,stimsday2details/gift20.png,stimsday2details/new31.png,stimsday2details/n20.png,stimsday2details/cn20.png,stimsday2details/t20.png,stimsday2details/ct20.png,0,6,6,6,,,,,,,,,,,,,,,,,,,,,,,,,,,,,,,,,,,,,,,,,,,,,,,,,,,,,,,,,,,,,,,,,,,,,,,,,3.496697172522545e-05,None,1,0.5875911340117455,1034.6062987209298,None,1034.6062987209298,None,1034.6062987209298,None,1036.6042256206274,None,2,0.6018167147412896,1036.6042256206274,None,1036.6042256206274,None,1038.603727670852,None,1038.603727670852,None,2,0.836153756827116,1038.603727670852,None,1,0.722084010951221,1040.6045066509396,None,1040.6045066509396,None,1040.6045066509396,None,1042.6044937376864,None,1042.6044937376864,None,1,0.6218265080824494,1042.6044937376864,None,1044.6033942066133,None,1044.6033942066133,None,2,0.723585847299546,1044.6033942066133,None,001,10,2019_Aug_23_0929,viewing,3.1.2,60.01008199409697,
south.png,stims/wedding-1.1a.mp4,stims/wedding-1.1b.mp4,stims/wedding-1.2a.mp4,stims/wedding-1.3b.mp4,stims/wedding-1.4a.mp4,stims/wedding-1.5.mp4,stimsday2details/newegg15.png,stimsday2details/egg1.png,stimsday2details/couple1.png,stimsday2details/newperson32.png,stimsday2details/gift1.png,stimsday2details/new32.png,stimsday2details/n1.png,stimsday2details/cn1.png,stimsday2details/ct1.png,stimsday2details/t1.png,0,7,7,7,0,0,0,0,,,,,,,,,,,,,,,,,,,,,,,,,1046.604436319787,None,,,,,,,,,,,,,,,,,,,,,,,,,,,,,,,,,,,,,,,,,,,,,,,,,,,,,,,,,,,,,,,,,,,,,,,,,,,,,,,,,,,,,,,,,,,,,001,10,2019_Aug_23_0929,viewing,3.1.2,60.01008199409697,
south.png,stims/wedding-1.1a.mp4,stims/wedding-1.1b.mp4,stims/wedding-1.2a.mp4,stims/wedding-1.3b.mp4,stims/wedding-1.4a.mp4,stims/wedding-1.5.mp4,stimsday2details/newegg15.png,stimsday2details/egg1.png,stimsday2details/couple1.png,stimsday2details/newperson32.png,stimsday2details/gift1.png,stimsday2details/new32.png,stimsday2details/n1.png,stimsday2details/cn1.png,stimsday2details/ct1.png,stimsday2details/t1.png,0,7,7,7,,,,,0,0,0,0,,,,,,,,,,,,,,,,,,,,,,,None,None,,,,,,,,,,,,,,,,,,,,,,,,,,,,,,,,,,,,,,,,,,,,,,,,,,,,,,,,,,,,,,,,,,,,,,,,,,,,,,,,,,,,,,,,,,,001,10,2019_Aug_23_0929,viewing,3.1.2,60.01008199409697,
south.png,stims/wedding-1.1a.mp4,stims/wedding-1.1b.mp4,stims/wedding-1.2a.mp4,stims/wedding-1.3b.mp4,stims/wedding-1.4a.mp4,stims/wedding-1.5.mp4,stimsday2details/newegg15.png,stimsday2details/egg1.png,stimsday2details/couple1.png,stimsday2details/newperson32.png,stimsday2details/gift1.png,stimsday2details/new32.png,stimsday2details/n1.png,stimsday2details/cn1.png,stimsday2details/ct1.png,stimsday2details/t1.png,0,7,7,7,,,,,,,,,0,0,0,0,,,,,,,,,,,,,,,,,,,,,3.1531873331405222,None,1057.1199135547504,1081.9543288238347,1081.9707080307417,None,1090.9700316446833,1107.95752590755,1107.970154224895,1130.953586366959,1130.9700976978056,None,1154.9697427917272,None,,,,,,,,,,,,,,,,,,,,,,,,,,,,,,,,,,,,,,,,,,,,,,,,,,,,,,,,,,,,,,,,,,,,,,,,,,,,,001,10,2019_Aug_23_0929,viewing,3.1.2,60.01008199409697,
south.png,stims/wedding-1.1a.mp4,stims/wedding-1.1b.mp4,stims/wedding-1.2a.mp4,stims/wedding-1.3b.mp4,stims/wedding-1.4a.mp4,stims/wedding-1.5.mp4,stimsday2details/newegg15.png,stimsday2details/egg1.png,stimsday2details/couple1.png,stimsday2details/newperson32.png,stimsday2details/gift1.png,stimsday2details/new32.png,stimsday2details/n1.png,stimsday2details/cn1.png,stimsday2details/ct1.png,stimsday2details/t1.png,0,7,7,7,,,,,,,,,,,,,0,0,0,0,,,,,,,,,,,,,,,,,,,,,,,,,,,,,,,None,None,None,None,None,None,None,None,None,None,None,None,None,None,None,None,None,None,None,,None,None,None,,None,None,,,,,,,,,,,,,,,,,,,,,,,,,,,,,,,,,,,,,,,,,,,,,,,,,,,001,10,2019_Aug_23_0929,viewing,3.1.2,60.01008199409697,
south.png,stims/wedding-1.1a.mp4,stims/wedding-1.1b.mp4,stims/wedding-1.2a.mp4,stims/wedding-1.3b.mp4,stims/wedding-1.4a.mp4,stims/wedding-1.5.mp4,stimsday2details/newegg15.png,stimsday2details/egg1.png,stimsday2details/couple1.png,stimsday2details/newperson32.png,stimsday2details/gift1.png,stimsday2details/new32.png,stimsday2details/n1.png,stimsday2details/cn1.png,stimsday2details/ct1.png,stimsday2details/t1.png,0,7,7,7,,,,,,,,,,,,,,,,,,,,,,,,,,,,,,,,,,,,,,,,,,,,,,,,,,,,,,,,,,,,,,,,,,,,,,,,,3.885524347424507e-05,None,1,0.535555622074753,1178.7891619908623,None,1178.7891619908623,None,1178.7891619908623,None,1180.7852073479444,None,2,0.7079451219178736,1180.7852073479444,None,1180.7852073479444,None,1182.7894286187366,None,1182.7894286187366,None,1,0.6642824928276241,1182.7894286187366,None,2,0.7517892397008836,1184.7856171927415,None,1184.7856171927415,None,1184.7856171927415,None,1186.7859461749904,None,1186.7859461749904,None,1,0.6856549680233002,1186.7859461749904,None,1188.7855677236803,None,1188.7855677236803,None,2,0.5352298333309591,1188.7855677236803,None,001,10,2019_Aug_23_0929,viewing,3.1.2,60.01008199409697,
south.png,stims/wedding-29.1a.mp4,stims/wedding-29.1b.mp4,stims/wedding-29.2b.mp4,stims/wedding-29.3a.mp4,stims/wedding-29.4b.mp4,stims/wedding-29.5.mp4,stimsday2details/painting29.png,stimsday2details/newpainting18.png,stimsday2details/newperson33.png,stimsday2details/couple29.png,stimsday2details/gift29.png,stimsday2details/new33.png,stimsday2details/n29.png,stimsday2details/cn29.png,stimsday2details/t29.png,stimsday2details/ct29.png,0,8,8,8,0,0,0,0,,,,,,,,,,,,,,,,,,,,,,,,,1190.7859725225717,None,,,,,,,,,,,,,,,,,,,,,,,,,,,,,,,,,,,,,,,,,,,,,,,,,,,,,,,,,,,,,,,,,,,,,,,,,,,,,,,,,,,,,,,,,,,,,001,10,2019_Aug_23_0929,viewing,3.1.2,60.01008199409697,
south.png,stims/wedding-29.1a.mp4,stims/wedding-29.1b.mp4,stims/wedding-29.2b.mp4,stims/wedding-29.3a.mp4,stims/wedding-29.4b.mp4,stims/wedding-29.5.mp4,stimsday2details/painting29.png,stimsday2details/newpainting18.png,stimsday2details/newperson33.png,stimsday2details/couple29.png,stimsday2details/gift29.png,stimsday2details/new33.png,stimsday2details/n29.png,stimsday2details/cn29.png,stimsday2details/t29.png,stimsday2details/ct29.png,0,8,8,8,,,,,0,0,0,0,,,,,,,,,,,,,,,,,,,,,,,None,None,,,,,,,,,,,,,,,,,,,,,,,,,,,,,,,,,,,,,,,,,,,,,,,,,,,,,,,,,,,,,,,,,,,,,,,,,,,,,,,,,,,,,,,,,,,001,10,2019_Aug_23_0929,viewing,3.1.2,60.01008199409697,
south.png,stims/wedding-29.1a.mp4,stims/wedding-29.1b.mp4,stims/wedding-29.2b.mp4,stims/wedding-29.3a.mp4,stims/wedding-29.4b.mp4,stims/wedding-29.5.mp4,stimsday2details/painting29.png,stimsday2details/newpainting18.png,stimsday2details/newperson33.png,stimsday2details/couple29.png,stimsday2details/gift29.png,stimsday2details/new33.png,stimsday2details/n29.png,stimsday2details/cn29.png,stimsday2details/t29.png,stimsday2details/ct29.png,0,8,8,8,,,,,,,,,0,0,0,0,,,,,,,,,,,,,,,,,,,,,2.876592736225575,None,1201.069060114678,1226.1844054469839,1226.2015788028948,None,1235.1900973417796,None,1252.2013466958888,None,1275.2013624999672,None,1299.20035721967,None,,,,,,,,,,,,,,,,,,,,,,,,,,,,,,,,,,,,,,,,,,,,,,,,,,,,,,,,,,,,,,,,,,,,,,,,,,,,,001,10,2019_Aug_23_0929,viewing,3.1.2,60.01008199409697,
south.png,stims/wedding-29.1a.mp4,stims/wedding-29.1b.mp4,stims/wedding-29.2b.mp4,stims/wedding-29.3a.mp4,stims/wedding-29.4b.mp4,stims/wedding-29.5.mp4,stimsday2details/painting29.png,stimsday2details/newpainting18.png,stimsday2details/newperson33.png,stimsday2details/couple29.png,stimsday2details/gift29.png,stimsday2details/new33.png,stimsday2details/n29.png,stimsday2details/cn29.png,stimsday2details/t29.png,stimsday2details/ct29.png,0,8,8,8,,,,,,,,,,,,,0,0,0,0,,,,,,,,,,,,,,,,,,,,,,,,,,,,,,,None,None,None,None,None,None,None,None,None,None,None,None,None,None,None,None,None,None,None,,None,None,None,,None,None,,,,,,,,,,,,,,,,,,,,,,,,,,,,,,,,,,,,,,,,,,,,,,,,,,,001,10,2019_Aug_23_0929,viewing,3.1.2,60.01008199409697,
south.png,stims/wedding-29.1a.mp4,stims/wedding-29.1b.mp4,stims/wedding-29.2b.mp4,stims/wedding-29.3a.mp4,stims/wedding-29.4b.mp4,stims/wedding-29.5.mp4,stimsday2details/painting29.png,stimsday2details/newpainting18.png,stimsday2details/newperson33.png,stimsday2details/couple29.png,stimsday2details/gift29.png,stimsday2details/new33.png,stimsday2details/n29.png,stimsday2details/cn29.png,stimsday2details/t29.png,stimsday2details/ct29.png,0,8,8,8,,,,,,,,,,,,,,,,,,,,,,,,,,,,,,,,,,,,,,,,,,,,,,,,,,,,,,,,,,,,,,,,,,,,,,,,,3.395695239305496e-05,None,1,0.5177736449986696,1322.667448588647,None,1322.667448588647,None,1322.667448588647,None,1324.6592054879293,None,1,0.7808213322423398,1324.6592054879293,None,1324.6592054879293,None,1326.6582894879393,None,1326.6582894879393,None,2,0.6532168369740248,1326.6582894879393,None,1,0.4646934703923762,1328.654430135619,None,1328.654430135619,None,1328.654430135619,None,1330.6545299827121,None,1330.6545299827121,None,1,0.5811992599628866,1330.6545299827121,None,1332.6546359709464,None,1332.6546359709464,None,2,0.7016612398438156,1332.6546359709464,None,001,10,2019_Aug_23_0929,viewing,3.1.2,60.01008199409697,
north.png,stims/wedding-23.1a.mp4,stims/wedding-23.1b.mp4,stims/wedding-23.2a.mp4,stims/wedding-23.3a.mp4,stims/wedding-23.4a.mp4,stims/wedding-23.5.mp4,stimsday2details/newegg16.png,stimsday2details/egg23.png,stimsday2details/couple23.png,stimsday2details/newperson34.png,stimsday2details/gift23.png,stimsday2details/new34.png,stimsday2details/cn23.png,stimsday2details/n23.png,stimsday2details/ct23.png,stimsday2details/t23.png,0,9,9,9,0,0,0,0,,,,,,,,,,,,,,,,,,,,,,,,,None,None,,,,,,,,,,,,,,,,,,,,,,,,,,,,,,,,,,,,,,,,,,,,,,,,,,,,,,,,,,,,,,,,,,,,,,,,,,,,,,,,,,,,,,,,,,,,,001,10,2019_Aug_23_0929,viewing,3.1.2,60.01008199409697,
north.png,stims/wedding-23.1a.mp4,stims/wedding-23.1b.mp4,stims/wedding-23.2a.mp4,stims/wedding-23.3a.mp4,stims/wedding-23.4a.mp4,stims/wedding-23.5.mp4,stimsday2details/newegg16.png,stimsday2details/egg23.png,stimsday2details/couple23.png,stimsday2details/newperson34.png,stimsday2details/gift23.png,stimsday2details/new34.png,stimsday2details/cn23.png,stimsday2details/n23.png,stimsday2details/ct23.png,stimsday2details/t23.png,0,9,9,9,,,,,0,0,0,0,,,,,,,,,,,,,,,,,,,,,,,1335.2177670169622,None,,,,,,,,,,,,,,,,,,,,,,,,,,,,,,,,,,,,,,,,,,,,,,,,,,,,,,,,,,,,,,,,,,,,,,,,,,,,,,,,,,,,,,,,,,,001,10,2019_Aug_23_0929,viewing,3.1.2,60.01008199409697,
north.png,stims/wedding-23.1a.mp4,stims/wedding-23.1b.mp4,stims/wedding-23.2a.mp4,stims/wedding-23.3a.mp4,stims/wedding-23.4a.mp4,stims/wedding-23.5.mp4,stimsday2details/newegg16.png,stimsday2details/egg23.png,stimsday2details/couple23.png,stimsday2details/newperson34.png,stimsday2details/gift23.png,stimsday2details/new34.png,stimsday2details/cn23.png,stimsday2details/n23.png,stimsday2details/ct23.png,stimsday2details/t23.png,0,9,9,9,,,,,,,,,0,0,0,0,,,,,,,,,,,,,,,,,,,,,2.9440848021768034,None,1345.366300336551,1370.4197973469272,1370.4328117948025,None,1379.4327803179622,1396.4201737758704,1396.4330807807855,1419.4192091105506,1419.4332218589261,1443.4204000248574,1443.4329073429108,None,,,,,,,,,,,,,,,,,,,,,,,,,,,,,,,,,,,,,,,,,,,,,,,,,,,,,,,,,,,,,,,,,,,,,,,,,,,,,001,10,2019_Aug_23_0929,viewing,3.1.2,60.01008199409697,
north.png,stims/wedding-23.1a.mp4,stims/wedding-23.1b.mp4,stims/wedding-23.2a.mp4,stims/wedding-23.3a.mp4,stims/wedding-23.4a.mp4,stims/wedding-23.5.mp4,stimsday2details/newegg16.png,stimsday2details/egg23.png,stimsday2details/couple23.png,stimsday2details/newperson34.png,stimsday2details/gift23.png,stimsday2details/new34.png,stimsday2details/cn23.png,stimsday2details/n23.png,stimsday2details/ct23.png,stimsday2details/t23.png,0,9,9,9,,,,,,,,,,,,,0,0,0,0,,,,,,,,,,,,,,,,,,,,,,,,,,,,,,,None,None,None,None,None,None,None,None,None,None,None,None,None,None,None,None,None,None,None,,None,None,None,,None,None,,,,,,,,,,,,,,,,,,,,,,,,,,,,,,,,,,,,,,,,,,,,,,,,,,,001,10,2019_Aug_23_0929,viewing,3.1.2,60.01008199409697,
north.png,stims/wedding-23.1a.mp4,stims/wedding-23.1b.mp4,stims/wedding-23.2a.mp4,stims/wedding-23.3a.mp4,stims/wedding-23.4a.mp4,stims/wedding-23.5.mp4,stimsday2details/newegg16.png,stimsday2details/egg23.png,stimsday2details/couple23.png,stimsday2details/newperson34.png,stimsday2details/gift23.png,stimsday2details/new34.png,stimsday2details/cn23.png,stimsday2details/n23.png,stimsday2details/ct23.png,stimsday2details/t23.png,0,9,9,9,,,,,,,,,,,,,,,,,,,,,,,,,,,,,,,,,,,,,,,,,,,,,,,,,,,,,,,,,,,,,,,,,,,,,,,,,3.02228145301342e-05,None,2,0.6497202743776143,1467.8991229818203,None,1467.8991229818203,None,1467.8991229818203,None,1469.8872594819404,None,2,0.7894463711418211,1469.8872594819404,None,1469.8872594819404,None,1471.886464072857,None,1471.886464072857,None,1,0.7190749417059124,1471.886464072857,None,2,0.811148767825216,1473.8870615269989,None,1473.8870615269989,None,1473.8870615269989,None,1475.8854842428118,None,1475.8854842428118,None,1,0.5975963450036943,1475.8854842428118,None,1477.8812044425867,None,1477.8812044425867,None,2,1.1029475359246135,1477.8812044425867,None,001,10,2019_Aug_23_0929,viewing,3.1.2,60.01008199409697,
north.png,stims/wedding-22.1a.mp4,stims/wedding-22.1b.mp4,stims/wedding-22.2a.mp4,stims/wedding-22.3a.mp4,stims/wedding-22.4a.mp4,stims/wedding-22.5.mp4,stimsday2details/egg22.png,stimsday2details/newegg17.png,stimsday2details/couple22.png,stimsday2details/newperson35.png,stimsday2details/new35.png,stimsday2details/gift22.png,stimsday2details/n22.png,stimsday2details/cn22.png,stimsday2details/ct22.png,stimsday2details/t22.png,0,10,10,10,0,0,0,0,,,,,,,,,,,,,,,,,,,,,,,,,None,None,,,,,,,,,,,,,,,,,,,,,,,,,,,,,,,,,,,,,,,,,,,,,,,,,,,,,,,,,,,,,,,,,,,,,,,,,,,,,,,,,,,,,,,,,,,,,001,10,2019_Aug_23_0929,viewing,3.1.2,60.01008199409697,
north.png,stims/wedding-22.1a.mp4,stims/wedding-22.1b.mp4,stims/wedding-22.2a.mp4,stims/wedding-22.3a.mp4,stims/wedding-22.4a.mp4,stims/wedding-22.5.mp4,stimsday2details/egg22.png,stimsday2details/newegg17.png,stimsday2details/couple22.png,stimsday2details/newperson35.png,stimsday2details/new35.png,stimsday2details/gift22.png,stimsday2details/n22.png,stimsday2details/cn22.png,stimsday2details/ct22.png,stimsday2details/t22.png,0,10,10,10,,,,,0,0,0,0,,,,,,,,,,,,,,,,,,,,,,,1480.1314225899987,None,,,,,,,,,,,,,,,,,,,,,,,,,,,,,,,,,,,,,,,,,,,,,,,,,,,,,,,,,,,,,,,,,,,,,,,,,,,,,,,,,,,,,,,,,,,001,10,2019_Aug_23_0929,viewing,3.1.2,60.01008199409697,
north.png,stims/wedding-22.1a.mp4,stims/wedding-22.1b.mp4,stims/wedding-22.2a.mp4,stims/wedding-22.3a.mp4,stims/wedding-22.4a.mp4,stims/wedding-22.5.mp4,stimsday2details/egg22.png,stimsday2details/newegg17.png,stimsday2details/couple22.png,stimsday2details/newperson35.png,stimsday2details/new35.png,stimsday2details/gift22.png,stimsday2details/n22.png,stimsday2details/cn22.png,stimsday2details/ct22.png,stimsday2details/t22.png,0,10,10,10,,,,,,,,,0,0,0,0,,,,,,,,,,,,,,,,,,,,,3.0631926232017577,None,1490.4479245496914,1515.3818122618832,1515.3977191736922,None,1524.3974654786289,1541.3808920946904,1541.3971308339387,1564.3843589466996,1564.3976356876083,1588.3848049328662,1588.3848049328662,None,,,,,,,,,,,,,,,,,,,,,,,,,,,,,,,,,,,,,,,,,,,,,,,,,,,,,,,,,,,,,,,,,,,,,,,,,,,,,001,10,2019_Aug_23_0929,viewing,3.1.2,60.01008199409697,
north.png,stims/wedding-22.1a.mp4,stims/wedding-22.1b.mp4,stims/wedding-22.2a.mp4,stims/wedding-22.3a.mp4,stims/wedding-22.4a.mp4,stims/wedding-22.5.mp4,stimsday2details/egg22.png,stimsday2details/newegg17.png,stimsday2details/couple22.png,stimsday2details/newperson35.png,stimsday2details/new35.png,stimsday2details/gift22.png,stimsday2details/n22.png,stimsday2details/cn22.png,stimsday2details/ct22.png,stimsday2details/t22.png,0,10,10,10,,,,,,,,,,,,,0,0,0,0,,,,,,,,,,,,,,,,,,,,,,,,,,,,,,,None,None,None,None,None,None,None,None,None,None,None,None,None,None,None,None,None,None,None,,None,None,None,,None,None,,,,,,,,,,,,,,,,,,,,,,,,,,,,,,,,,,,,,,,,,,,,,,,,,,,001,10,2019_Aug_23_0929,viewing,3.1.2,60.01008199409697,
north.png,stims/wedding-22.1a.mp4,stims/wedding-22.1b.mp4,stims/wedding-22.2a.mp4,stims/wedding-22.3a.mp4,stims/wedding-22.4a.mp4,stims/wedding-22.5.mp4,stimsday2details/egg22.png,stimsday2details/newegg17.png,stimsday2details/couple22.png,stimsday2details/newperson35.png,stimsday2details/new35.png,stimsday2details/gift22.png,stimsday2details/n22.png,stimsday2details/cn22.png,stimsday2details/ct22.png,stimsday2details/t22.png,0,10,10,10,,,,,,,,,,,,,,,,,,,,,,,,,,,,,,,,,,,,,,,,,,,,,,,,,,,,,,,,,,,,,,,,,,,,,,,,,3.1715258955955505e-05,None,1,0.5678879888728261,1612.5137995416299,None,1612.5137995416299,None,1612.5137995416299,None,1614.5130353765562,None,1,0.6073157857172191,1614.5130353765562,None,1614.5130353765562,None,1616.513360935729,None,1616.513360935729,None,1,0.6893100161105394,1616.513360935729,None,2,0.7030893247574568,1618.5171066797338,None,1618.5171066797338,None,1618.5171066797338,None,1620.5172189008445,None,1620.5172189008445,None,2,0.8519311700947583,1620.5172189008445,None,1622.5131888696924,None,1622.5131888696924,None,1,0.8518180707469583,1622.5131888696924,None,001,10,2019_Aug_23_0929,viewing,3.1.2,60.01008199409697,
south.png,stims/wedding-38.1a.mp4,stims/wedding-38.1b.mp4,stims/wedding-38.2a.mp4,stims/wedding-38.3b.mp4,stims/wedding-38.4a.mp4,stims/wedding-38.5.mp4,stimsday2details/egg38.png,stimsday2details/newegg18.png,stimsday2details/newperson36.png,stimsday2details/couple38.png,stimsday2details/gift38.png,stimsday2details/new36.png,stimsday2details/cn38.png,stimsday2details/n38.png,stimsday2details/ct38.png,stimsday2details/t38.png,0,11,11,11,0,0,0,0,,,,,,,,,,,,,,,,,,,,,,,,,1624.513093563728,None,,,,,,,,,,,,,,,,,,,,,,,,,,,,,,,,,,,,,,,,,,,,,,,,,,,,,,,,,,,,,,,,,,,,,,,,,,,,,,,,,,,,,,,,,,,,,001,10,2019_Aug_23_0929,viewing,3.1.2,60.01008199409697,
south.png,stims/wedding-38.1a.mp4,stims/wedding-38.1b.mp4,stims/wedding-38.2a.mp4,stims/wedding-38.3b.mp4,stims/wedding-38.4a.mp4,stims/wedding-38.5.mp4,stimsday2details/egg38.png,stimsday2details/newegg18.png,stimsday2details/newperson36.png,stimsday2details/couple38.png,stimsday2details/gift38.png,stimsday2details/new36.png,stimsday2details/cn38.png,stimsday2details/n38.png,stimsday2details/ct38.png,stimsday2details/t38.png,0,11,11,11,,,,,0,0,0,0,,,,,,,,,,,,,,,,,,,,,,,None,None,,,,,,,,,,,,,,,,,,,,,,,,,,,,,,,,,,,,,,,,,,,,,,,,,,,,,,,,,,,,,,,,,,,,,,,,,,,,,,,,,,,,,,,,,,,001,10,2019_Aug_23_0929,viewing,3.1.2,60.01008199409697,
south.png,stims/wedding-38.1a.mp4,stims/wedding-38.1b.mp4,stims/wedding-38.2a.mp4,stims/wedding-38.3b.mp4,stims/wedding-38.4a.mp4,stims/wedding-38.5.mp4,stimsday2details/egg38.png,stimsday2details/newegg18.png,stimsday2details/newperson36.png,stimsday2details/couple38.png,stimsday2details/gift38.png,stimsday2details/new36.png,stimsday2details/cn38.png,stimsday2details/n38.png,stimsday2details/ct38.png,stimsday2details/t38.png,0,11,11,11,,,,,,,,,0,0,0,0,,,,,,,,,,,,,,,,,,,,,None,None,None,None,None,None,None,None,None,None,None,None,None,None,,,,,,,,,,,,,,,,,,,,,,,,,,,,,,,,,,,,,,,,,,,,,,,,,,,,,,,,,,,,,,,,,,,,,,,,,,,,,001,10,2019_Aug_23_0929,viewing,3.1.2,60.01008199409697,
south.png,stims/wedding-38.1a.mp4,stims/wedding-38.1b.mp4,stims/wedding-38.2a.mp4,stims/wedding-38.3b.mp4,stims/wedding-38.4a.mp4,stims/wedding-38.5.mp4,stimsday2details/egg38.png,stimsday2details/newegg18.png,stimsday2details/newperson36.png,stimsday2details/couple38.png,stimsday2details/gift38.png,stimsday2details/new36.png,stimsday2details/cn38.png,stimsday2details/n38.png,stimsday2details/ct38.png,stimsday2details/t38.png,0,11,11,11,,,,,,,,,,,,,0,0,0,0,,,,,,,,,,,,,,,,,,,,,,,,,,,,,,,2.9615084868855774,None,1638.2959909588099,1663.3302247268148,1663.3302247268148,None,1672.3474913779646,1689.33420437295,1689.346561289858,1693.3334190766327,1693.346655566711,1716.3327332329936,1716.3455873099156,1720.3336357218213,1720.3336357218213,None,1744.345271277707,None,['2'],[2.2515717139467597],1688.3459195899777,1693.3334190766327,['1'],[2.3035172880627215],1715.34511942463,1720.3336357218213,,,,,,,,,,,,,,,,,,,,,,,,,,,,,,,,,,,,,,,,,,,,,,,,,,,001,10,2019_Aug_23_0929,viewing,3.1.2,60.01008199409697,
south.png,stims/wedding-38.1a.mp4,stims/wedding-38.1b.mp4,stims/wedding-38.2a.mp4,stims/wedding-38.3b.mp4,stims/wedding-38.4a.mp4,stims/wedding-38.5.mp4,stimsday2details/egg38.png,stimsday2details/newegg18.png,stimsday2details/newperson36.png,stimsday2details/couple38.png,stimsday2details/gift38.png,stimsday2details/new36.png,stimsday2details/cn38.png,stimsday2details/n38.png,stimsday2details/ct38.png,stimsday2details/t38.png,0,11,11,11,,,,,,,,,,,,,,,,,,,,,,,,,,,,,,,,,,,,,,,,,,,,,,,,,,,,,,,,,,,,,,,,,,,,,,,,,3.653392195701599e-05,None,2,0.6854521809145808,1765.2945231958292,None,1765.2945231958292,None,1765.2945231958292,None,1767.29424344562,None,1,0.6521819303743541,1767.29424344562,None,1767.29424344562,None,1769.2949159997515,None,1769.2949159997515,None,2,0.7018483276478946,1769.2949159997515,None,2,0.8363113747909665,1771.2941630217247,None,1771.2941630217247,None,1771.2941630217247,None,1773.2941347369924,None,1773.2941347369924,None,1,0.5522668017074466,1773.2941347369924,None,1775.294098497834,None,1775.294098497834,None,2,1.1865999102592468,1775.294098497834,None,001,10,2019_Aug_23_0929,viewing,3.1.2,60.01008199409697,
