leftimage,rightimage,trials.thisRepN,trials.thisTrialN,trials.thisN,trials.thisIndex,leftimageLoc.started,leftimageLoc.stopped,rightimageLoc.started,rightimageLoc.stopped,answer.keys,answer.rt,answer.started,answer.stopped,Q.started,Q.stopped,ITIfixation.started,ITIfixation.stopped,session,participant,date,expName,psychopyVersion,frameRate,
stimsday2details/wedding22.png,stimsday2details/wedding23.png,0,0,0,7,56.18764545299973,None,56.18764545299973,None,k,10.29926128399984,56.18764545299973,None,56.18764545299973,None,66.50665683699981,None,001,19,2019_Oct_01_1538,sequencetask,3.1.3,60.0481095846301,
stimsday2details/wedding22.png,stimsday2details/wedding2.png,0,1,1,17,68.28970344899972,None,68.28970344899972,None,k,7.946435371000007,68.28970344899972,None,68.28970344899972,None,76.25696756699972,None,001,19,2019_Oct_01_1538,sequencetask,3.1.3,60.0481095846301,
stimsday2details/wedding2.png,stimsday2details/wedding22.png,0,2,2,6,77.99096898700009,None,77.99096898700009,None,l,7.103507932999946,77.99096898700009,None,77.99096898700009,None,85.1231492019997,None,001,19,2019_Oct_01_1538,sequencetask,3.1.3,60.0481095846301,
stimsday2details/wedding28.png,stimsday2details/wedding20.png,0,3,3,11,86.95621991899998,None,86.95621991899998,None,k,5.046611460999884,86.95621991899998,None,86.95621991899998,None,92.02329693699994,None,001,19,2019_Oct_01_1538,sequencetask,3.1.3,60.0481095846301,
stimsday2details/wedding19.png,stimsday2details/wedding34.png,0,4,4,21,93.85602746099994,None,93.85602746099994,None,k,8.65715812999997,93.85602746099994,None,93.85602746099994,None,102.54014432399981,None,001,19,2019_Oct_01_1538,sequencetask,3.1.3,60.0481095846301,
stimsday2details/wedding23.png,stimsday2details/wedding22.png,0,5,5,18,104.26055414299981,None,104.26055414299981,None,l,2.4995991309997407,104.26055414299981,None,104.26055414299981,None,106.7892026239997,None,001,19,2019_Oct_01_1538,sequencetask,3.1.3,60.0481095846301,
stimsday2details/wedding34.png,stimsday2details/wedding19.png,0,6,6,10,108.52240973299968,None,108.52240973299968,None,l,6.046432821000053,108.52240973299968,None,108.52240973299968,None,114.58961255099985,None,001,19,2019_Oct_01_1538,sequencetask,3.1.3,60.0481095846301,
stimsday2details/wedding6.png,stimsday2details/wedding34.png,0,7,7,9,116.35704562000001,None,116.35704562000001,None,l,2.7191941650003173,116.35704562000001,None,116.35704562000001,None,119.10591792700006,None,001,19,2019_Oct_01_1538,sequencetask,3.1.3,60.0481095846301,
stimsday2details/wedding38.png,stimsday2details/wedding1.png,0,8,8,14,120.90558570899975,None,120.90558570899975,None,k,2.041197299000032,120.90558570899975,None,120.90558570899975,None,122.97271881400002,None,001,19,2019_Oct_01_1538,sequencetask,3.1.3,60.0481095846301,
stimsday2details/wedding34.png,stimsday2details/wedding6.png,0,9,9,20,124.69073748599976,None,124.69073748599976,None,k,3.598209261000193,124.69073748599976,None,124.69073748599976,None,128.30628521399967,None,001,19,2019_Oct_01_1538,sequencetask,3.1.3,60.0481095846301,
stimsday2details/wedding29.png,stimsday2details/wedding2.png,0,10,10,5,130.0725629839999,None,130.0725629839999,None,l,1.6551403400003437,130.0725629839999,None,130.0725629839999,None,131.75605954999992,None,001,19,2019_Oct_01_1538,sequencetask,3.1.3,60.0481095846301,
stimsday2details/wedding6.png,stimsday2details/wedding23.png,0,11,11,19,133.4897284489998,None,133.4897284489998,None,l,1.9966760030001751,133.4897284489998,None,133.4897284489998,None,135.5058950329999,None,001,19,2019_Oct_01_1538,sequencetask,3.1.3,60.0481095846301,
stimsday2details/wedding17.png,stimsday2details/wedding1.png,0,12,12,2,137.289287522,None,137.289287522,None,l,4.064769959000387,137.289287522,None,137.289287522,None,141.37210683800004,None,001,19,2019_Oct_01_1538,sequencetask,3.1.3,60.0481095846301,
stimsday2details/wedding1.png,stimsday2details/wedding17.png,0,13,13,13,143.10725697299995,None,143.10725697299995,None,l,2.051645539999754,143.10725697299995,None,143.10725697299995,None,145.1883325929998,None,001,19,2019_Oct_01_1538,sequencetask,3.1.3,60.0481095846301,
stimsday2details/wedding17.png,stimsday2details/wedding28.png,0,14,14,12,146.9385150559997,None,146.9385150559997,None,l,2.372210873000313,146.9385150559997,None,146.9385150559997,None,149.33889270600002,None,001,19,2019_Oct_01_1538,sequencetask,3.1.3,60.0481095846301,
stimsday2details/wedding38.png,stimsday2details/wedding29.png,0,15,15,4,151.0741928980001,None,151.0741928980001,None,k,3.603182671000013,151.0741928980001,None,151.0741928980001,None,154.70593017600004,None,001,19,2019_Oct_01_1538,sequencetask,3.1.3,60.0481095846301,
stimsday2details/wedding28.png,stimsday2details/wedding17.png,0,16,16,1,156.455512044,None,156.455512044,None,k,4.14206725799977,156.455512044,None,156.455512044,None,160.6223260769998,None,001,19,2019_Oct_01_1538,sequencetask,3.1.3,60.0481095846301,
stimsday2details/wedding2.png,stimsday2details/wedding29.png,0,17,17,16,162.38923690499996,None,162.38923690499996,None,k,2.984621436999987,162.38923690499996,None,162.38923690499996,None,165.4057002899999,None,001,19,2019_Oct_01_1538,sequencetask,3.1.3,60.0481095846301,
stimsday2details/wedding20.png,stimsday2details/wedding28.png,0,18,18,0,167.14143125100009,None,167.14143125100009,None,l,4.254208651000226,167.14143125100009,None,167.14143125100009,None,171.42232871899978,None,001,19,2019_Oct_01_1538,sequencetask,3.1.3,60.0481095846301,
stimsday2details/wedding23.png,stimsday2details/wedding6.png,0,19,19,8,173.1556555809998,None,173.1556555809998,None,k,8.423550288000115,173.1556555809998,None,173.1556555809998,None,181.6047525869999,None,001,19,2019_Oct_01_1538,sequencetask,3.1.3,60.0481095846301,
stimsday2details/wedding29.png,stimsday2details/wedding38.png,0,20,20,15,183.33830492800007,None,183.33830492800007,None,l,1.8857024579997415,183.33830492800007,None,183.33830492800007,None,185.25483394799994,None,001,19,2019_Oct_01_1538,sequencetask,3.1.3,60.0481095846301,
stimsday2details/wedding1.png,stimsday2details/wedding38.png,0,21,21,3,186.9888458209998,None,186.9888458209998,None,l,1.8160461120000946,186.9888458209998,None,186.9888458209998,None,188.821624874,None,001,19,2019_Oct_01_1538,sequencetask,3.1.3,60.0481095846301,
