northOrSouth,stimFile1a,stimFile1b,stimFile2,stimFile3,stimFile4,stimFile5,Qeggpainting1,Qeggpainting2,Qcharacter1,Qcharacter2,Qgift1,Qgift2,Qname1,Qname2,Qtheme1,Qtheme2,trials.thisRepN,trials.thisTrialN,trials.thisN,trials.thisIndex,South.thisRepN,South.thisTrialN,South.thisN,South.thisIndex,North.thisRepN,North.thisTrialN,North.thisN,North.thisIndex,noQtrials.thisRepN,noQtrials.thisTrialN,noQtrials.thisN,noQtrials.thisIndex,Qtrials.thisRepN,Qtrials.thisTrialN,Qtrials.thisN,Qtrials.thisIndex,text.started,text.stopped,prep_trigger.keys,prep_trigger.rt,prep_trigger.started,prep_trigger.stopped,waiting.started,waiting.stopped,trigger.keys,trigger.rt,trigger.started,trigger.stopped,southCueImage.started,southCueImage.stopped,northCueImage.started,northCueImage.stopped,trialNoQs.started,trialNoQs.stopped,vid1a.started,vid1a.stopped,vid1b.started,vid1b.stopped,vid2.started,vid2.stopped,vid3.started,vid3.stopped,vid4.started,vid4.stopped,vid5.started,vid5.stopped,ISI2.started,ISI2.stopped,vid1a_q.started,vid1a_q.stopped,vid1b_q.started,vid1b_q.stopped,vid2_q.started,vid2_q.stopped,l2q.started,l2q.stopped,vid3_q.started,vid3_q.stopped,l3q.started,l3q.stopped,vid4_q.started,vid4_q.stopped,vid5_q.started,vid5_q.stopped,key_resp_2.keys,key_resp_2.rt,key_resp_2.started,key_resp_2.stopped,key_resp_3.keys,key_resp_3.rt,key_resp_3.started,key_resp_3.stopped,ISI7.started,ISI7.stopped,nameQresp.keys,nameQresp.rt,nameQresp.started,nameQresp.stopped,nameQ1.started,nameQ1.stopped,nameQ2.started,nameQ2.stopped,eggPainting1.started,eggPainting1.stopped,eggPaintingQresp.keys,eggPaintingQresp.rt,eggPaintingQresp.started,eggPaintingQresp.stopped,eggPainting2.started,eggPainting2.stopped,character1.started,character1.stopped,character2.started,character2.stopped,Qcharacter.keys,Qcharacter.rt,Qcharacter.started,Qcharacter.stopped,themeQresp.keys,themeQresp.rt,themeQresp.started,themeQresp.stopped,themeQ1.started,themeQ1.stopped,themeQ2.started,themeQ2.stopped,gift1.started,gift1.stopped,gift2.started,gift2.stopped,giftQresp.keys,giftQresp.rt,giftQresp.started,giftQresp.stopped,northorsouth1.started,northorsouth1.stopped,northorsouth2.started,northorsouth2.stopped,northOrSouthQ.keys,northOrSouthQ.started,northOrSouthQ.stopped,northOrSouthQ.rt,session,participant,date,expName,psychopyVersion,frameRate,
,,,,,,,,,,,,,,,,,,,,,,,,,,,,,,,,,,,,,9.728621027024928,None,g,0.5050821109907702,9.728621027024928,None,,,,,,,,,,,,,,,,,,,,,,,,,,,,,,,,,,,,,,,,,,,,,,,,,,,,,,,,,,,,,,,,,,,,,,,,,,,,,,,,,,,,,,,,,,,,,,,,,,,,,001,19,2019_Oct_01_1439,viewing,3.1.2,60.22917635535253,
,,,,,,,,,,,,,,,,,,,,,,,,,,,,,,,,,,,,,,,,,,,10.24196860898519,None,equal,25.0681370869861,10.24196860898519,None,,,,,,,,,,,,,,,,,,,,,,,,,,,,,,,,,,,,,,,,,,,,,,,,,,,,,,,,,,,,,,,,,,,,,,,,,,,,,,,,,,,,,,,,,,,,,,,001,19,2019_Oct_01_1439,viewing,3.1.2,60.22917635535253,
south.png,stims/wedding-20.1a.mp4,stims/wedding-20.1b.mp4,stims/wedding-20.2b.mp4,stims/wedding-20.3a.mp4,stims/wedding-20.4b.mp4,stims/wedding-20.5.mp4,stimsday2details/painting20.png,stimsday2details/newpainting13.png,stimsday2details/couple20.png,stimsday2details/newperson25.png,stimsday2details/gift20.png,stimsday2details/new25.png,stimsday2details/n20.png,stimsday2details/cn20.png,stimsday2details/ct20.png,stimsday2details/t20.png,0,0,0,0,0,0,0,0,,,,,,,,,,,,,,,,,,,,,,,,,35.42511007300345,None,,,,,,,,,,,,,,,,,,,,,,,,,,,,,,,,,,,,,,,,,,,,,,,,,,,,,,,,,,,,,,,,,,,,,,,,,,,,,,,,,,,,,,,,,,,,,001,19,2019_Oct_01_1439,viewing,3.1.2,60.22917635535253,
south.png,stims/wedding-20.1a.mp4,stims/wedding-20.1b.mp4,stims/wedding-20.2b.mp4,stims/wedding-20.3a.mp4,stims/wedding-20.4b.mp4,stims/wedding-20.5.mp4,stimsday2details/painting20.png,stimsday2details/newpainting13.png,stimsday2details/couple20.png,stimsday2details/newperson25.png,stimsday2details/gift20.png,stimsday2details/new25.png,stimsday2details/n20.png,stimsday2details/cn20.png,stimsday2details/ct20.png,stimsday2details/t20.png,0,0,0,0,,,,,0,0,0,0,,,,,,,,,,,,,,,,,,,,,,,None,None,,,,,,,,,,,,,,,,,,,,,,,,,,,,,,,,,,,,,,,,,,,,,,,,,,,,,,,,,,,,,,,,,,,,,,,,,,,,,,,,,,,,,,,,,,,001,19,2019_Oct_01_1439,viewing,3.1.2,60.22917635535253,
south.png,stims/wedding-20.1a.mp4,stims/wedding-20.1b.mp4,stims/wedding-20.2b.mp4,stims/wedding-20.3a.mp4,stims/wedding-20.4b.mp4,stims/wedding-20.5.mp4,stimsday2details/painting20.png,stimsday2details/newpainting13.png,stimsday2details/couple20.png,stimsday2details/newperson25.png,stimsday2details/gift20.png,stimsday2details/new25.png,stimsday2details/n20.png,stimsday2details/cn20.png,stimsday2details/ct20.png,stimsday2details/t20.png,0,0,0,0,,,,,,,,,0,0,0,0,,,,,,,,,,,,,,,,,,,,,None,None,None,None,None,None,None,None,None,None,None,None,None,None,,,,,,,,,,,,,,,,,,,,,,,,,,,,,,,,,,,,,,,,,,,,,,,,,,,,,,,,,,,,,,,,,,,,,,,,,,,,,001,19,2019_Oct_01_1439,viewing,3.1.2,60.22917635535253,
south.png,stims/wedding-20.1a.mp4,stims/wedding-20.1b.mp4,stims/wedding-20.2b.mp4,stims/wedding-20.3a.mp4,stims/wedding-20.4b.mp4,stims/wedding-20.5.mp4,stimsday2details/painting20.png,stimsday2details/newpainting13.png,stimsday2details/couple20.png,stimsday2details/newperson25.png,stimsday2details/gift20.png,stimsday2details/new25.png,stimsday2details/n20.png,stimsday2details/cn20.png,stimsday2details/ct20.png,stimsday2details/t20.png,0,0,0,0,,,,,,,,,,,,,0,0,0,0,,,,,,,,,,,,,,,,,,,,,,,,,,,,,,,2.5889347239863127,None,48.40737315203296,73.80738532199757,73.82342611398781,None,82.82370373001322,None,99.82353369198972,103.80664679198526,103.82406479900237,126.8064387679915,126.82773187098792,130.80627229402307,130.82328261702787,None,154.82325922802556,None,"['2', '1']","[55.41669506201288, 2.6725886199856177]",98.82449107000139,103.80664679198526,['2'],[2.922828300972469],125.82358983601443,130.80627229402307,,,,,,,,,,,,,,,,,,,,,,,,,,,,,,,,,,,,,,,,,,,,,,,,,,,001,19,2019_Oct_01_1439,viewing,3.1.2,60.22917635535253,
south.png,stims/wedding-20.1a.mp4,stims/wedding-20.1b.mp4,stims/wedding-20.2b.mp4,stims/wedding-20.3a.mp4,stims/wedding-20.4b.mp4,stims/wedding-20.5.mp4,stimsday2details/painting20.png,stimsday2details/newpainting13.png,stimsday2details/couple20.png,stimsday2details/newperson25.png,stimsday2details/gift20.png,stimsday2details/new25.png,stimsday2details/n20.png,stimsday2details/cn20.png,stimsday2details/ct20.png,stimsday2details/t20.png,0,0,0,0,,,,,,,,,,,,,,,,,,,,,,,,,,,,,,,,,,,,,,,,,,,,,,,,,,,,,,,,,,,,,,,,,,,,,,,,,2.7030997443944216e-05,None,1,1.0338528220308945,174.49007019703276,None,174.49007019703276,None,174.49007019703276,None,176.489700214006,None,1,0.851774281996768,176.489700214006,None,176.489700214006,None,178.4929163120105,None,178.4929163120105,None,1,0.8315887809731066,178.4929163120105,None,1,1.3858429389656521,180.48964173300192,None,180.48964173300192,None,180.48964173300192,None,182.48919219902018,None,182.48919219902018,None,1,0.8861916830064729,182.48919219902018,None,184.48880466999253,None,184.48880466999253,None,None,184.48880466999253,None,,001,19,2019_Oct_01_1439,viewing,3.1.2,60.22917635535253,
north.png,stims/wedding-28.1a.mp4,stims/wedding-28.1b.mp4,stims/wedding-28.2b.mp4,stims/wedding-28.3b.mp4,stims/wedding-28.4b.mp4,stims/wedding-28.5.mp4,stimsday2details/painting28.png,stimsday2details/newpainting14.png,stimsday2details/couple28.png,stimsday2details/newperson26.png,stimsday2details/gift28.png,stimsday2details/new26.png,stimsday2details/cn28.png,stimsday2details/n28.png,stimsday2details/ct28.png,stimsday2details/t28.png,0,1,1,1,0,0,0,0,,,,,,,,,,,,,,,,,,,,,,,,,None,None,,,,,,,,,,,,,,,,,,,,,,,,,,,,,,,,,,,,,,,,,,,,,,,,,,,,,,,,,,,,,,,,,,,,,,,,,,,,,,,,,,,,,,,,,,,,,001,19,2019_Oct_01_1439,viewing,3.1.2,60.22917635535253,
north.png,stims/wedding-28.1a.mp4,stims/wedding-28.1b.mp4,stims/wedding-28.2b.mp4,stims/wedding-28.3b.mp4,stims/wedding-28.4b.mp4,stims/wedding-28.5.mp4,stimsday2details/painting28.png,stimsday2details/newpainting14.png,stimsday2details/couple28.png,stimsday2details/newperson26.png,stimsday2details/gift28.png,stimsday2details/new26.png,stimsday2details/cn28.png,stimsday2details/n28.png,stimsday2details/ct28.png,stimsday2details/t28.png,0,1,1,1,,,,,0,0,0,0,,,,,,,,,,,,,,,,,,,,,,,186.53896036499646,None,,,,,,,,,,,,,,,,,,,,,,,,,,,,,,,,,,,,,,,,,,,,,,,,,,,,,,,,,,,,,,,,,,,,,,,,,,,,,,,,,,,,,,,,,,,001,19,2019_Oct_01_1439,viewing,3.1.2,60.22917635535253,
north.png,stims/wedding-28.1a.mp4,stims/wedding-28.1b.mp4,stims/wedding-28.2b.mp4,stims/wedding-28.3b.mp4,stims/wedding-28.4b.mp4,stims/wedding-28.5.mp4,stimsday2details/painting28.png,stimsday2details/newpainting14.png,stimsday2details/couple28.png,stimsday2details/newperson26.png,stimsday2details/gift28.png,stimsday2details/new26.png,stimsday2details/cn28.png,stimsday2details/n28.png,stimsday2details/ct28.png,stimsday2details/t28.png,0,1,1,1,,,,,,,,,0,0,0,0,,,,,,,,,,,,,,,,,,,,,2.9996307769906707,None,196.57280937902397,221.57321378402412,221.58964355301578,None,230.58913847099757,None,247.5896626340109,270.57293483399553,270.58770382299554,None,294.5886055009905,None,,,,,,,,,,,,,,,,,,,,,,,,,,,,,,,,,,,,,,,,,,,,,,,,,,,,,,,,,,,,,,,,,,,,,,,,,,,,,001,19,2019_Oct_01_1439,viewing,3.1.2,60.22917635535253,
north.png,stims/wedding-28.1a.mp4,stims/wedding-28.1b.mp4,stims/wedding-28.2b.mp4,stims/wedding-28.3b.mp4,stims/wedding-28.4b.mp4,stims/wedding-28.5.mp4,stimsday2details/painting28.png,stimsday2details/newpainting14.png,stimsday2details/couple28.png,stimsday2details/newperson26.png,stimsday2details/gift28.png,stimsday2details/new26.png,stimsday2details/cn28.png,stimsday2details/n28.png,stimsday2details/ct28.png,stimsday2details/t28.png,0,1,1,1,,,,,,,,,,,,,0,0,0,0,,,,,,,,,,,,,,,,,,,,,,,,,,,,,,,None,None,None,None,None,None,None,None,None,None,None,None,None,None,None,None,None,None,None,,None,None,None,,None,None,,,,,,,,,,,,,,,,,,,,,,,,,,,,,,,,,,,,,,,,,,,,,,,,,,,001,19,2019_Oct_01_1439,viewing,3.1.2,60.22917635535253,
north.png,stims/wedding-28.1a.mp4,stims/wedding-28.1b.mp4,stims/wedding-28.2b.mp4,stims/wedding-28.3b.mp4,stims/wedding-28.4b.mp4,stims/wedding-28.5.mp4,stimsday2details/painting28.png,stimsday2details/newpainting14.png,stimsday2details/couple28.png,stimsday2details/newperson26.png,stimsday2details/gift28.png,stimsday2details/new26.png,stimsday2details/cn28.png,stimsday2details/n28.png,stimsday2details/ct28.png,stimsday2details/t28.png,0,1,1,1,,,,,,,,,,,,,,,,,,,,,,,,,,,,,,,,,,,,,,,,,,,,,,,,,,,,,,,,,,,,,,,,,,,,,,,,,3.185000969097018e-05,None,2,1.2887992500327528,318.53846522502135,None,318.53846522502135,None,318.53846522502135,None,320.53797324502375,None,1,0.9880877229734324,320.53797324502375,None,320.53797324502375,None,322.53764258901356,None,322.53764258901356,None,1,0.9893527890089899,322.53764258901356,None,2,1.3313057480263524,324.5417799450224,None,324.5417799450224,None,324.5417799450224,None,326.5380574759911,None,326.5380574759911,None,1,0.9228124290239066,326.5380574759911,None,328.53787743800785,None,328.53787743800785,None,None,328.53787743800785,None,,001,19,2019_Oct_01_1439,viewing,3.1.2,60.22917635535253,
north.png,stims/wedding-17.1a.mp4,stims/wedding-17.1b.mp4,stims/wedding-17.2b.mp4,stims/wedding-17.3b.mp4,stims/wedding-17.4b.mp4,stims/wedding-17.5.mp4,stimsday2details/painting17.png,stimsday2details/newpainting15.png,stimsday2details/newperson27.png,stimsday2details/couple17.png,stimsday2details/new27.png,stimsday2details/gift17.png,stimsday2details/cn17.png,stimsday2details/n17.png,stimsday2details/ct17.png,stimsday2details/t17.png,0,2,2,2,0,0,0,0,,,,,,,,,,,,,,,,,,,,,,,,,None,None,,,,,,,,,,,,,,,,,,,,,,,,,,,,,,,,,,,,,,,,,,,,,,,,,,,,,,,,,,,,,,,,,,,,,,,,,,,,,,,,,,,,,,,,,,,,,001,19,2019_Oct_01_1439,viewing,3.1.2,60.22917635535253,
north.png,stims/wedding-17.1a.mp4,stims/wedding-17.1b.mp4,stims/wedding-17.2b.mp4,stims/wedding-17.3b.mp4,stims/wedding-17.4b.mp4,stims/wedding-17.5.mp4,stimsday2details/painting17.png,stimsday2details/newpainting15.png,stimsday2details/newperson27.png,stimsday2details/couple17.png,stimsday2details/new27.png,stimsday2details/gift17.png,stimsday2details/cn17.png,stimsday2details/n17.png,stimsday2details/ct17.png,stimsday2details/t17.png,0,2,2,2,,,,,0,0,0,0,,,,,,,,,,,,,,,,,,,,,,,330.60403078998206,None,,,,,,,,,,,,,,,,,,,,,,,,,,,,,,,,,,,,,,,,,,,,,,,,,,,,,,,,,,,,,,,,,,,,,,,,,,,,,,,,,,,,,,,,,,,001,19,2019_Oct_01_1439,viewing,3.1.2,60.22917635535253,
north.png,stims/wedding-17.1a.mp4,stims/wedding-17.1b.mp4,stims/wedding-17.2b.mp4,stims/wedding-17.3b.mp4,stims/wedding-17.4b.mp4,stims/wedding-17.5.mp4,stimsday2details/painting17.png,stimsday2details/newpainting15.png,stimsday2details/newperson27.png,stimsday2details/couple17.png,stimsday2details/new27.png,stimsday2details/gift17.png,stimsday2details/cn17.png,stimsday2details/n17.png,stimsday2details/ct17.png,stimsday2details/t17.png,0,2,2,2,,,,,,,,,0,0,0,0,,,,,,,,,,,,,,,,,,,,,2.9614843809977174,None,340.6374864599784,None,365.6874402019894,None,374.69082604401046,None,391.7041592299938,414.67936993500916,414.6920750649879,None,438.6859681979986,None,,,,,,,,,,,,,,,,,,,,,,,,,,,,,,,,,,,,,,,,,,,,,,,,,,,,,,,,,,,,,,,,,,,,,,,,,,,,,001,19,2019_Oct_01_1439,viewing,3.1.2,60.22917635535253,
north.png,stims/wedding-17.1a.mp4,stims/wedding-17.1b.mp4,stims/wedding-17.2b.mp4,stims/wedding-17.3b.mp4,stims/wedding-17.4b.mp4,stims/wedding-17.5.mp4,stimsday2details/painting17.png,stimsday2details/newpainting15.png,stimsday2details/newperson27.png,stimsday2details/couple17.png,stimsday2details/new27.png,stimsday2details/gift17.png,stimsday2details/cn17.png,stimsday2details/n17.png,stimsday2details/ct17.png,stimsday2details/t17.png,0,2,2,2,,,,,,,,,,,,,0,0,0,0,,,,,,,,,,,,,,,,,,,,,,,,,,,,,,,None,None,None,None,None,None,None,None,None,None,None,None,None,None,None,None,None,None,None,,None,None,None,,None,None,,,,,,,,,,,,,,,,,,,,,,,,,,,,,,,,,,,,,,,,,,,,,,,,,,,001,19,2019_Oct_01_1439,viewing,3.1.2,60.22917635535253,
north.png,stims/wedding-17.1a.mp4,stims/wedding-17.1b.mp4,stims/wedding-17.2b.mp4,stims/wedding-17.3b.mp4,stims/wedding-17.4b.mp4,stims/wedding-17.5.mp4,stimsday2details/painting17.png,stimsday2details/newpainting15.png,stimsday2details/newperson27.png,stimsday2details/couple17.png,stimsday2details/new27.png,stimsday2details/gift17.png,stimsday2details/cn17.png,stimsday2details/n17.png,stimsday2details/ct17.png,stimsday2details/t17.png,0,2,2,2,,,,,,,,,,,,,,,,,,,,,,,,,,,,,,,,,,,,,,,,,,,,,,,,,,,,,,,,,,,,,,,,,,,,,,,,,4.491902654990554e-05,None,2,1.4226776090217754,462.3032037970261,None,462.3032037970261,None,462.3032037970261,None,464.30188069399446,None,1,0.8238739150110632,464.30188069399446,None,464.30188069399446,None,466.30709734902484,None,466.30709734902484,None,2,0.9642133140005171,466.30709734902484,None,2,1.3138056229799986,468.30716003797716,None,468.30716003797716,None,468.30716003797716,None,470.301988731022,None,470.301988731022,None,2,1.5351389209972695,470.301988731022,None,472.30664447601885,None,472.30664447601885,None,None,472.30664447601885,None,,001,19,2019_Oct_01_1439,viewing,3.1.2,60.22917635535253,
south.png,stims/wedding-1.1a.mp4,stims/wedding-1.1b.mp4,stims/wedding-1.2a.mp4,stims/wedding-1.3b.mp4,stims/wedding-1.4a.mp4,stims/wedding-1.5.mp4,stimsday2details/newegg13.png,stimsday2details/egg1.png,stimsday2details/couple1.png,stimsday2details/newperson28.png,stimsday2details/new28.png,stimsday2details/gift1.png,stimsday2details/cn1.png,stimsday2details/n1.png,stimsday2details/ct1.png,stimsday2details/t1.png,0,3,3,3,0,0,0,0,,,,,,,,,,,,,,,,,,,,,,,,,474.3067473510164,None,,,,,,,,,,,,,,,,,,,,,,,,,,,,,,,,,,,,,,,,,,,,,,,,,,,,,,,,,,,,,,,,,,,,,,,,,,,,,,,,,,,,,,,,,,,,,001,19,2019_Oct_01_1439,viewing,3.1.2,60.22917635535253,
south.png,stims/wedding-1.1a.mp4,stims/wedding-1.1b.mp4,stims/wedding-1.2a.mp4,stims/wedding-1.3b.mp4,stims/wedding-1.4a.mp4,stims/wedding-1.5.mp4,stimsday2details/newegg13.png,stimsday2details/egg1.png,stimsday2details/couple1.png,stimsday2details/newperson28.png,stimsday2details/new28.png,stimsday2details/gift1.png,stimsday2details/cn1.png,stimsday2details/n1.png,stimsday2details/ct1.png,stimsday2details/t1.png,0,3,3,3,,,,,0,0,0,0,,,,,,,,,,,,,,,,,,,,,,,None,None,,,,,,,,,,,,,,,,,,,,,,,,,,,,,,,,,,,,,,,,,,,,,,,,,,,,,,,,,,,,,,,,,,,,,,,,,,,,,,,,,,,,,,,,,,,001,19,2019_Oct_01_1439,viewing,3.1.2,60.22917635535253,
south.png,stims/wedding-1.1a.mp4,stims/wedding-1.1b.mp4,stims/wedding-1.2a.mp4,stims/wedding-1.3b.mp4,stims/wedding-1.4a.mp4,stims/wedding-1.5.mp4,stimsday2details/newegg13.png,stimsday2details/egg1.png,stimsday2details/couple1.png,stimsday2details/newperson28.png,stimsday2details/new28.png,stimsday2details/gift1.png,stimsday2details/cn1.png,stimsday2details/n1.png,stimsday2details/ct1.png,stimsday2details/t1.png,0,3,3,3,,,,,,,,,0,0,0,0,,,,,,,,,,,,,,,,,,,,,2.990463865979109,None,484.4682796240086,509.4903361169854,509.4903361169854,None,518.502399664023,535.4847727490123,535.5013716060203,558.4898004200077,558.5017955320072,None,582.5007396680303,None,,,,,,,,,,,,,,,,,,,,,,,,,,,,,,,,,,,,,,,,,,,,,,,,,,,,,,,,,,,,,,,,,,,,,,,,,,,,,001,19,2019_Oct_01_1439,viewing,3.1.2,60.22917635535253,
south.png,stims/wedding-1.1a.mp4,stims/wedding-1.1b.mp4,stims/wedding-1.2a.mp4,stims/wedding-1.3b.mp4,stims/wedding-1.4a.mp4,stims/wedding-1.5.mp4,stimsday2details/newegg13.png,stimsday2details/egg1.png,stimsday2details/couple1.png,stimsday2details/newperson28.png,stimsday2details/new28.png,stimsday2details/gift1.png,stimsday2details/cn1.png,stimsday2details/n1.png,stimsday2details/ct1.png,stimsday2details/t1.png,0,3,3,3,,,,,,,,,,,,,0,0,0,0,,,,,,,,,,,,,,,,,,,,,,,,,,,,,,,None,None,None,None,None,None,None,None,None,None,None,None,None,None,None,None,None,None,None,,None,None,None,,None,None,,,,,,,,,,,,,,,,,,,,,,,,,,,,,,,,,,,,,,,,,,,,,,,,,,,001,19,2019_Oct_01_1439,viewing,3.1.2,60.22917635535253,
south.png,stims/wedding-1.1a.mp4,stims/wedding-1.1b.mp4,stims/wedding-1.2a.mp4,stims/wedding-1.3b.mp4,stims/wedding-1.4a.mp4,stims/wedding-1.5.mp4,stimsday2details/newegg13.png,stimsday2details/egg1.png,stimsday2details/couple1.png,stimsday2details/newperson28.png,stimsday2details/new28.png,stimsday2details/gift1.png,stimsday2details/cn1.png,stimsday2details/n1.png,stimsday2details/ct1.png,stimsday2details/t1.png,0,3,3,3,,,,,,,,,,,,,,,,,,,,,,,,,,,,,,,,,,,,,,,,,,,,,,,,,,,,,,,,,,,,,,,,,,,,,,,,,3.508798545226455e-05,None,2,1.2504622020060197,606.1514601460076,None,606.1514601460076,None,606.1514601460076,None,608.1501292790053,None,2,1.250541699002497,608.1501292790053,None,608.1501292790053,None,610.1504090030212,None,610.1504090030212,None,1,1.1191967769991606,610.1504090030212,None,2,1.2562941210344434,612.1513780560344,None,612.1513780560344,None,612.1513780560344,None,614.1551885320223,None,614.1551885320223,None,2,1.401943898992613,614.1551885320223,None,616.1549909510068,None,616.1549909510068,None,None,616.1549909510068,None,,001,19,2019_Oct_01_1439,viewing,3.1.2,60.22917635535253,
south.png,stims/wedding-38.1a.mp4,stims/wedding-38.1b.mp4,stims/wedding-38.2b.mp4,stims/wedding-38.3a.mp4,stims/wedding-38.4b.mp4,stims/wedding-38.5.mp4,stimsday2details/painting38.png,stimsday2details/newpainting16.png,stimsday2details/couple38.png,stimsday2details/newperson29.png,stimsday2details/new29.png,stimsday2details/gift38.png,stimsday2details/n38.png,stimsday2details/cn38.png,stimsday2details/ct38.png,stimsday2details/t38.png,0,4,4,4,0,0,0,0,,,,,,,,,,,,,,,,,,,,,,,,,618.1550006219768,None,,,,,,,,,,,,,,,,,,,,,,,,,,,,,,,,,,,,,,,,,,,,,,,,,,,,,,,,,,,,,,,,,,,,,,,,,,,,,,,,,,,,,,,,,,,,,001,19,2019_Oct_01_1439,viewing,3.1.2,60.22917635535253,
south.png,stims/wedding-38.1a.mp4,stims/wedding-38.1b.mp4,stims/wedding-38.2b.mp4,stims/wedding-38.3a.mp4,stims/wedding-38.4b.mp4,stims/wedding-38.5.mp4,stimsday2details/painting38.png,stimsday2details/newpainting16.png,stimsday2details/couple38.png,stimsday2details/newperson29.png,stimsday2details/new29.png,stimsday2details/gift38.png,stimsday2details/n38.png,stimsday2details/cn38.png,stimsday2details/ct38.png,stimsday2details/t38.png,0,4,4,4,,,,,0,0,0,0,,,,,,,,,,,,,,,,,,,,,,,None,None,,,,,,,,,,,,,,,,,,,,,,,,,,,,,,,,,,,,,,,,,,,,,,,,,,,,,,,,,,,,,,,,,,,,,,,,,,,,,,,,,,,,,,,,,,,001,19,2019_Oct_01_1439,viewing,3.1.2,60.22917635535253,
south.png,stims/wedding-38.1a.mp4,stims/wedding-38.1b.mp4,stims/wedding-38.2b.mp4,stims/wedding-38.3a.mp4,stims/wedding-38.4b.mp4,stims/wedding-38.5.mp4,stimsday2details/painting38.png,stimsday2details/newpainting16.png,stimsday2details/couple38.png,stimsday2details/newperson29.png,stimsday2details/new29.png,stimsday2details/gift38.png,stimsday2details/n38.png,stimsday2details/cn38.png,stimsday2details/ct38.png,stimsday2details/t38.png,0,4,4,4,,,,,,,,,0,0,0,0,,,,,,,,,,,,,,,,,,,,,2.9331497930106707,None,628.3169594699866,653.3835168579826,653.3835168579826,None,662.3841650580289,None,679.3839243599796,702.3844040380209,702.3844040380209,None,726.3826518059941,None,,,,,,,,,,,,,,,,,,,,,,,,,,,,,,,,,,,,,,,,,,,,,,,,,,,,,,,,,,,,,,,,,,,,,,,,,,,,,001,19,2019_Oct_01_1439,viewing,3.1.2,60.22917635535253,
south.png,stims/wedding-38.1a.mp4,stims/wedding-38.1b.mp4,stims/wedding-38.2b.mp4,stims/wedding-38.3a.mp4,stims/wedding-38.4b.mp4,stims/wedding-38.5.mp4,stimsday2details/painting38.png,stimsday2details/newpainting16.png,stimsday2details/couple38.png,stimsday2details/newperson29.png,stimsday2details/new29.png,stimsday2details/gift38.png,stimsday2details/n38.png,stimsday2details/cn38.png,stimsday2details/ct38.png,stimsday2details/t38.png,0,4,4,4,,,,,,,,,,,,,0,0,0,0,,,,,,,,,,,,,,,,,,,,,,,,,,,,,,,None,None,None,None,None,None,None,None,None,None,None,None,None,None,None,None,None,None,None,,None,None,None,,None,None,,,,,,,,,,,,,,,,,,,,,,,,,,,,,,,,,,,,,,,,,,,,,,,,,,,001,19,2019_Oct_01_1439,viewing,3.1.2,60.22917635535253,
south.png,stims/wedding-38.1a.mp4,stims/wedding-38.1b.mp4,stims/wedding-38.2b.mp4,stims/wedding-38.3a.mp4,stims/wedding-38.4b.mp4,stims/wedding-38.5.mp4,stimsday2details/painting38.png,stimsday2details/newpainting16.png,stimsday2details/couple38.png,stimsday2details/newperson29.png,stimsday2details/new29.png,stimsday2details/gift38.png,stimsday2details/n38.png,stimsday2details/cn38.png,stimsday2details/ct38.png,stimsday2details/t38.png,0,4,4,4,,,,,,,,,,,,,,,,,,,,,,,,,,,,,,,,,,,,,,,,,,,,,,,,,,,,,,,,,,,,,,,,,,,,,,,,,3.1337025575339794e-05,None,1,1.450339247006923,750.1672664019861,None,750.1672664019861,None,750.1672664019861,None,752.1658319379785,None,1,0.8566396500100382,752.1658319379785,None,752.1658319379785,None,754.1704541509971,None,754.1704541509971,None,1,0.9518262969795614,754.1704541509971,None,2,1.4027732720132917,756.1654505340266,None,756.1654505340266,None,756.1654505340266,None,758.1661447570077,None,758.1661447570077,None,2,1.0183981180307455,758.1661447570077,None,760.1662529900204,None,760.1662529900204,None,None,760.1662529900204,None,,001,19,2019_Oct_01_1439,viewing,3.1.2,60.22917635535253,
north.png,stims/wedding-29.1a.mp4,stims/wedding-29.1b.mp4,stims/wedding-29.2a.mp4,stims/wedding-29.3a.mp4,stims/wedding-29.4a.mp4,stims/wedding-29.5.mp4,stimsday2details/newegg14.png,stimsday2details/egg29.png,stimsday2details/couple29.png,stimsday2details/newperson30.png,stimsday2details/new30.png,stimsday2details/gift29.png,stimsday2details/cn29.png,stimsday2details/n29.png,stimsday2details/ct29.png,stimsday2details/t29.png,0,5,5,5,0,0,0,0,,,,,,,,,,,,,,,,,,,,,,,,,None,None,,,,,,,,,,,,,,,,,,,,,,,,,,,,,,,,,,,,,,,,,,,,,,,,,,,,,,,,,,,,,,,,,,,,,,,,,,,,,,,,,,,,,,,,,,,,,001,19,2019_Oct_01_1439,viewing,3.1.2,60.22917635535253,
north.png,stims/wedding-29.1a.mp4,stims/wedding-29.1b.mp4,stims/wedding-29.2a.mp4,stims/wedding-29.3a.mp4,stims/wedding-29.4a.mp4,stims/wedding-29.5.mp4,stimsday2details/newegg14.png,stimsday2details/egg29.png,stimsday2details/couple29.png,stimsday2details/newperson30.png,stimsday2details/new30.png,stimsday2details/gift29.png,stimsday2details/cn29.png,stimsday2details/n29.png,stimsday2details/ct29.png,stimsday2details/t29.png,0,5,5,5,,,,,0,0,0,0,,,,,,,,,,,,,,,,,,,,,,,762.2984686410055,None,,,,,,,,,,,,,,,,,,,,,,,,,,,,,,,,,,,,,,,,,,,,,,,,,,,,,,,,,,,,,,,,,,,,,,,,,,,,,,,,,,,,,,,,,,,001,19,2019_Oct_01_1439,viewing,3.1.2,60.22917635535253,
north.png,stims/wedding-29.1a.mp4,stims/wedding-29.1b.mp4,stims/wedding-29.2a.mp4,stims/wedding-29.3a.mp4,stims/wedding-29.4a.mp4,stims/wedding-29.5.mp4,stimsday2details/newegg14.png,stimsday2details/egg29.png,stimsday2details/couple29.png,stimsday2details/newperson30.png,stimsday2details/new30.png,stimsday2details/gift29.png,stimsday2details/cn29.png,stimsday2details/n29.png,stimsday2details/ct29.png,stimsday2details/t29.png,0,5,5,5,,,,,,,,,0,0,0,0,,,,,,,,,,,,,,,,,,,,,2.9216676159994677,None,772.3655368069885,797.4477125999983,797.4477125999983,None,806.4476662719972,None,823.447729017993,None,846.4471619310207,None,870.4482651010039,None,,,,,,,,,,,,,,,,,,,,,,,,,,,,,,,,,,,,,,,,,,,,,,,,,,,,,,,,,,,,,,,,,,,,,,,,,,,,,001,19,2019_Oct_01_1439,viewing,3.1.2,60.22917635535253,
north.png,stims/wedding-29.1a.mp4,stims/wedding-29.1b.mp4,stims/wedding-29.2a.mp4,stims/wedding-29.3a.mp4,stims/wedding-29.4a.mp4,stims/wedding-29.5.mp4,stimsday2details/newegg14.png,stimsday2details/egg29.png,stimsday2details/couple29.png,stimsday2details/newperson30.png,stimsday2details/new30.png,stimsday2details/gift29.png,stimsday2details/cn29.png,stimsday2details/n29.png,stimsday2details/ct29.png,stimsday2details/t29.png,0,5,5,5,,,,,,,,,,,,,0,0,0,0,,,,,,,,,,,,,,,,,,,,,,,,,,,,,,,None,None,None,None,None,None,None,None,None,None,None,None,None,None,None,None,None,None,None,,None,None,None,,None,None,,,,,,,,,,,,,,,,,,,,,,,,,,,,,,,,,,,,,,,,,,,,,,,,,,,001,19,2019_Oct_01_1439,viewing,3.1.2,60.22917635535253,
north.png,stims/wedding-29.1a.mp4,stims/wedding-29.1b.mp4,stims/wedding-29.2a.mp4,stims/wedding-29.3a.mp4,stims/wedding-29.4a.mp4,stims/wedding-29.5.mp4,stimsday2details/newegg14.png,stimsday2details/egg29.png,stimsday2details/couple29.png,stimsday2details/newperson30.png,stimsday2details/new30.png,stimsday2details/gift29.png,stimsday2details/cn29.png,stimsday2details/n29.png,stimsday2details/ct29.png,stimsday2details/t29.png,0,5,5,5,,,,,,,,,,,,,,,,,,,,,,,,,,,,,,,,,,,,,,,,,,,,,,,,,,,,,,,,,,,,,,,,,,,,,,,,,3.912701504305005e-05,None,None,,893.9149052840075,None,893.9149052840075,None,893.9149052840075,None,895.9012694099802,None,1,1.1401774589903653,895.9012694099802,None,895.9012694099802,None,897.9060255510267,None,897.9060255510267,None,1,0.8522863459656946,897.9060255510267,None,2,1.734729829011485,899.9017993169837,None,899.9017993169837,None,899.9017993169837,None,901.8973129430087,None,901.8973129430087,None,2,1.439065728976857,901.8973129430087,None,903.8972489780281,None,903.8972489780281,None,None,903.8972489780281,None,,001,19,2019_Oct_01_1439,viewing,3.1.2,60.22917635535253,
north.png,stims/wedding-2.1a.mp4,stims/wedding-2.1b.mp4,stims/wedding-2.2a.mp4,stims/wedding-2.3a.mp4,stims/wedding-2.4a.mp4,stims/wedding-2.5.mp4,stimsday2details/newegg15.png,stimsday2details/egg2.png,stimsday2details/newperson31.png,stimsday2details/couple2.png,stimsday2details/new31.png,stimsday2details/gift2.png,stimsday2details/cn2.png,stimsday2details/n2.png,stimsday2details/t2.png,stimsday2details/ct2.png,0,6,6,6,0,0,0,0,,,,,,,,,,,,,,,,,,,,,,,,,None,None,,,,,,,,,,,,,,,,,,,,,,,,,,,,,,,,,,,,,,,,,,,,,,,,,,,,,,,,,,,,,,,,,,,,,,,,,,,,,,,,,,,,,,,,,,,,,001,19,2019_Oct_01_1439,viewing,3.1.2,60.22917635535253,
north.png,stims/wedding-2.1a.mp4,stims/wedding-2.1b.mp4,stims/wedding-2.2a.mp4,stims/wedding-2.3a.mp4,stims/wedding-2.4a.mp4,stims/wedding-2.5.mp4,stimsday2details/newegg15.png,stimsday2details/egg2.png,stimsday2details/newperson31.png,stimsday2details/couple2.png,stimsday2details/new31.png,stimsday2details/gift2.png,stimsday2details/cn2.png,stimsday2details/n2.png,stimsday2details/t2.png,stimsday2details/ct2.png,0,6,6,6,,,,,0,0,0,0,,,,,,,,,,,,,,,,,,,,,,,906.0473355890135,None,,,,,,,,,,,,,,,,,,,,,,,,,,,,,,,,,,,,,,,,,,,,,,,,,,,,,,,,,,,,,,,,,,,,,,,,,,,,,,,,,,,,,,,,,,,001,19,2019_Oct_01_1439,viewing,3.1.2,60.22917635535253,
north.png,stims/wedding-2.1a.mp4,stims/wedding-2.1b.mp4,stims/wedding-2.2a.mp4,stims/wedding-2.3a.mp4,stims/wedding-2.4a.mp4,stims/wedding-2.5.mp4,stimsday2details/newegg15.png,stimsday2details/egg2.png,stimsday2details/newperson31.png,stimsday2details/couple2.png,stimsday2details/new31.png,stimsday2details/gift2.png,stimsday2details/cn2.png,stimsday2details/n2.png,stimsday2details/t2.png,stimsday2details/ct2.png,0,6,6,6,,,,,,,,,0,0,0,0,,,,,,,,,,,,,,,,,,,,,3.06469334900612,None,916.2803416160168,None,941.2128753330326,None,950.2300007630256,None,967.2300122909946,990.1980107289855,990.2149360200274,None,1014.2302614509827,None,,,,,,,,,,,,,,,,,,,,,,,,,,,,,,,,,,,,,,,,,,,,,,,,,,,,,,,,,,,,,,,,,,,,,,,,,,,,,001,19,2019_Oct_01_1439,viewing,3.1.2,60.22917635535253,
north.png,stims/wedding-2.1a.mp4,stims/wedding-2.1b.mp4,stims/wedding-2.2a.mp4,stims/wedding-2.3a.mp4,stims/wedding-2.4a.mp4,stims/wedding-2.5.mp4,stimsday2details/newegg15.png,stimsday2details/egg2.png,stimsday2details/newperson31.png,stimsday2details/couple2.png,stimsday2details/new31.png,stimsday2details/gift2.png,stimsday2details/cn2.png,stimsday2details/n2.png,stimsday2details/t2.png,stimsday2details/ct2.png,0,6,6,6,,,,,,,,,,,,,0,0,0,0,,,,,,,,,,,,,,,,,,,,,,,,,,,,,,,None,None,None,None,None,None,None,None,None,None,None,None,None,None,None,None,None,None,None,,None,None,None,,None,None,,,,,,,,,,,,,,,,,,,,,,,,,,,,,,,,,,,,,,,,,,,,,,,,,,,001,19,2019_Oct_01_1439,viewing,3.1.2,60.22917635535253,
north.png,stims/wedding-2.1a.mp4,stims/wedding-2.1b.mp4,stims/wedding-2.2a.mp4,stims/wedding-2.3a.mp4,stims/wedding-2.4a.mp4,stims/wedding-2.5.mp4,stimsday2details/newegg15.png,stimsday2details/egg2.png,stimsday2details/newperson31.png,stimsday2details/couple2.png,stimsday2details/new31.png,stimsday2details/gift2.png,stimsday2details/cn2.png,stimsday2details/n2.png,stimsday2details/t2.png,stimsday2details/ct2.png,0,6,6,6,,,,,,,,,,,,,,,,,,,,,,,,,,,,,,,,,,,,,,,,,,,,,,,,,,,,,,,,,,,,,,,,,,,,,,,,,3.19879618473351e-05,None,2,1.1021779929869808,1038.0449978220277,None,1038.0449978220277,None,1038.0449978220277,None,1040.0291763070272,None,2,1.1343161949771456,1040.0291763070272,None,1040.0291763070272,None,1042.0325154269813,None,1042.0325154269813,None,2,1.1150743510224856,1042.0325154269813,None,2,1.9145634250016883,1044.0326077479986,None,1044.0326077479986,None,1044.0326077479986,None,1046.0326403820072,None,1046.0326403820072,None,2,1.052938719978556,1046.0326403820072,None,1048.0327400990063,None,1048.0327400990063,None,None,1048.0327400990063,None,,001,19,2019_Oct_01_1439,viewing,3.1.2,60.22917635535253,
south.png,stims/wedding-22.1a.mp4,stims/wedding-22.1b.mp4,stims/wedding-22.2a.mp4,stims/wedding-22.3b.mp4,stims/wedding-22.4a.mp4,stims/wedding-22.5.mp4,stimsday2details/newegg16.png,stimsday2details/egg22.png,stimsday2details/newperson32.png,stimsday2details/couple22.png,stimsday2details/gift22.png,stimsday2details/new32.png,stimsday2details/n22.png,stimsday2details/cn22.png,stimsday2details/ct22.png,stimsday2details/t22.png,0,7,7,7,0,0,0,0,,,,,,,,,,,,,,,,,,,,,,,,,1050.0318883110303,None,,,,,,,,,,,,,,,,,,,,,,,,,,,,,,,,,,,,,,,,,,,,,,,,,,,,,,,,,,,,,,,,,,,,,,,,,,,,,,,,,,,,,,,,,,,,,001,19,2019_Oct_01_1439,viewing,3.1.2,60.22917635535253,
south.png,stims/wedding-22.1a.mp4,stims/wedding-22.1b.mp4,stims/wedding-22.2a.mp4,stims/wedding-22.3b.mp4,stims/wedding-22.4a.mp4,stims/wedding-22.5.mp4,stimsday2details/newegg16.png,stimsday2details/egg22.png,stimsday2details/newperson32.png,stimsday2details/couple22.png,stimsday2details/gift22.png,stimsday2details/new32.png,stimsday2details/n22.png,stimsday2details/cn22.png,stimsday2details/ct22.png,stimsday2details/t22.png,0,7,7,7,,,,,0,0,0,0,,,,,,,,,,,,,,,,,,,,,,,None,None,,,,,,,,,,,,,,,,,,,,,,,,,,,,,,,,,,,,,,,,,,,,,,,,,,,,,,,,,,,,,,,,,,,,,,,,,,,,,,,,,,,,,,,,,,,001,19,2019_Oct_01_1439,viewing,3.1.2,60.22917635535253,
south.png,stims/wedding-22.1a.mp4,stims/wedding-22.1b.mp4,stims/wedding-22.2a.mp4,stims/wedding-22.3b.mp4,stims/wedding-22.4a.mp4,stims/wedding-22.5.mp4,stimsday2details/newegg16.png,stimsday2details/egg22.png,stimsday2details/newperson32.png,stimsday2details/couple22.png,stimsday2details/gift22.png,stimsday2details/new32.png,stimsday2details/n22.png,stimsday2details/cn22.png,stimsday2details/ct22.png,stimsday2details/t22.png,0,7,7,7,,,,,,,,,0,0,0,0,,,,,,,,,,,,,,,,,,,,,3.0663109199958853,None,1060.4611965810182,1085.394832238031,1085.394832238031,None,1094.412003969017,1111.394502524985,1111.4104933940107,1134.39590266702,1134.4130106940283,1158.397640257026,1158.410727215989,None,,,,,,,,,,,,,,,,,,,,,,,,,,,,,,,,,,,,,,,,,,,,,,,,,,,,,,,,,,,,,,,,,,,,,,,,,,,,,001,19,2019_Oct_01_1439,viewing,3.1.2,60.22917635535253,
south.png,stims/wedding-22.1a.mp4,stims/wedding-22.1b.mp4,stims/wedding-22.2a.mp4,stims/wedding-22.3b.mp4,stims/wedding-22.4a.mp4,stims/wedding-22.5.mp4,stimsday2details/newegg16.png,stimsday2details/egg22.png,stimsday2details/newperson32.png,stimsday2details/couple22.png,stimsday2details/gift22.png,stimsday2details/new32.png,stimsday2details/n22.png,stimsday2details/cn22.png,stimsday2details/ct22.png,stimsday2details/t22.png,0,7,7,7,,,,,,,,,,,,,0,0,0,0,,,,,,,,,,,,,,,,,,,,,,,,,,,,,,,None,None,None,None,None,None,None,None,None,None,None,None,None,None,None,None,None,None,None,,None,None,None,,None,None,,,,,,,,,,,,,,,,,,,,,,,,,,,,,,,,,,,,,,,,,,,,,,,,,,,001,19,2019_Oct_01_1439,viewing,3.1.2,60.22917635535253,
south.png,stims/wedding-22.1a.mp4,stims/wedding-22.1b.mp4,stims/wedding-22.2a.mp4,stims/wedding-22.3b.mp4,stims/wedding-22.4a.mp4,stims/wedding-22.5.mp4,stimsday2details/newegg16.png,stimsday2details/egg22.png,stimsday2details/newperson32.png,stimsday2details/couple22.png,stimsday2details/gift22.png,stimsday2details/new32.png,stimsday2details/n22.png,stimsday2details/cn22.png,stimsday2details/ct22.png,stimsday2details/t22.png,0,7,7,7,,,,,,,,,,,,,,,,,,,,,,,,,,,,,,,,,,,,,,,,,,,,,,,,,,,,,,,,,,,,,,,,,,,,,,,,,4.10989741794765e-05,None,1,1.3131615280290134,1182.316090465989,None,1182.316090465989,None,1182.316090465989,None,1184.3095233450294,None,2,0.9073395589948632,1184.3095233450294,None,1184.3095233450294,None,1186.3147521350184,None,1186.3147521350184,None,2,0.9137154460186139,1186.3147521350184,None,1,1.5322009529918432,1188.313809174986,None,1188.313809174986,None,1188.313809174986,None,1190.3149651249987,None,1190.3149651249987,None,1,1.0639934259816073,1190.3149651249987,None,1192.31461837003,None,1192.31461837003,None,None,1192.31461837003,None,,001,19,2019_Oct_01_1439,viewing,3.1.2,60.22917635535253,
south.png,stims/wedding-23.1a.mp4,stims/wedding-23.1b.mp4,stims/wedding-23.2b.mp4,stims/wedding-23.3a.mp4,stims/wedding-23.4b.mp4,stims/wedding-23.5.mp4,stimsday2details/painting23.png,stimsday2details/newpainting17.png,stimsday2details/couple23.png,stimsday2details/newperson33.png,stimsday2details/gift23.png,stimsday2details/new33.png,stimsday2details/n23.png,stimsday2details/cn23.png,stimsday2details/ct23.png,stimsday2details/t23.png,0,8,8,8,0,0,0,0,,,,,,,,,,,,,,,,,,,,,,,,,1194.314119608025,None,,,,,,,,,,,,,,,,,,,,,,,,,,,,,,,,,,,,,,,,,,,,,,,,,,,,,,,,,,,,,,,,,,,,,,,,,,,,,,,,,,,,,,,,,,,,,001,19,2019_Oct_01_1439,viewing,3.1.2,60.22917635535253,
south.png,stims/wedding-23.1a.mp4,stims/wedding-23.1b.mp4,stims/wedding-23.2b.mp4,stims/wedding-23.3a.mp4,stims/wedding-23.4b.mp4,stims/wedding-23.5.mp4,stimsday2details/painting23.png,stimsday2details/newpainting17.png,stimsday2details/couple23.png,stimsday2details/newperson33.png,stimsday2details/gift23.png,stimsday2details/new33.png,stimsday2details/n23.png,stimsday2details/cn23.png,stimsday2details/ct23.png,stimsday2details/t23.png,0,8,8,8,,,,,0,0,0,0,,,,,,,,,,,,,,,,,,,,,,,None,None,,,,,,,,,,,,,,,,,,,,,,,,,,,,,,,,,,,,,,,,,,,,,,,,,,,,,,,,,,,,,,,,,,,,,,,,,,,,,,,,,,,,,,,,,,,001,19,2019_Oct_01_1439,viewing,3.1.2,60.22917635535253,
south.png,stims/wedding-23.1a.mp4,stims/wedding-23.1b.mp4,stims/wedding-23.2b.mp4,stims/wedding-23.3a.mp4,stims/wedding-23.4b.mp4,stims/wedding-23.5.mp4,stimsday2details/painting23.png,stimsday2details/newpainting17.png,stimsday2details/couple23.png,stimsday2details/newperson33.png,stimsday2details/gift23.png,stimsday2details/new33.png,stimsday2details/n23.png,stimsday2details/cn23.png,stimsday2details/ct23.png,stimsday2details/t23.png,0,8,8,8,,,,,,,,,0,0,0,0,,,,,,,,,,,,,,,,,,,,,2.9601144720218144,None,1204.6764080449939,1229.7102067749947,1229.7263795339968,None,1238.7268625010038,None,1255.7256717099808,1278.7092555540148,1278.725272561016,None,1302.7255940460018,None,,,,,,,,,,,,,,,,,,,,,,,,,,,,,,,,,,,,,,,,,,,,,,,,,,,,,,,,,,,,,,,,,,,,,,,,,,,,,001,19,2019_Oct_01_1439,viewing,3.1.2,60.22917635535253,
south.png,stims/wedding-23.1a.mp4,stims/wedding-23.1b.mp4,stims/wedding-23.2b.mp4,stims/wedding-23.3a.mp4,stims/wedding-23.4b.mp4,stims/wedding-23.5.mp4,stimsday2details/painting23.png,stimsday2details/newpainting17.png,stimsday2details/couple23.png,stimsday2details/newperson33.png,stimsday2details/gift23.png,stimsday2details/new33.png,stimsday2details/n23.png,stimsday2details/cn23.png,stimsday2details/ct23.png,stimsday2details/t23.png,0,8,8,8,,,,,,,,,,,,,0,0,0,0,,,,,,,,,,,,,,,,,,,,,,,,,,,,,,,None,None,None,None,None,None,None,None,None,None,None,None,None,None,None,None,None,None,None,,None,None,None,,None,None,,,,,,,,,,,,,,,,,,,,,,,,,,,,,,,,,,,,,,,,,,,,,,,,,,,001,19,2019_Oct_01_1439,viewing,3.1.2,60.22917635535253,
south.png,stims/wedding-23.1a.mp4,stims/wedding-23.1b.mp4,stims/wedding-23.2b.mp4,stims/wedding-23.3a.mp4,stims/wedding-23.4b.mp4,stims/wedding-23.5.mp4,stimsday2details/painting23.png,stimsday2details/newpainting17.png,stimsday2details/couple23.png,stimsday2details/newperson33.png,stimsday2details/gift23.png,stimsday2details/new33.png,stimsday2details/n23.png,stimsday2details/cn23.png,stimsday2details/ct23.png,stimsday2details/t23.png,0,8,8,8,,,,,,,,,,,,,,,,,,,,,,,,,,,,,,,,,,,,,,,,,,,,,,,,,,,,,,,,,,,,,,,,,,,,,,,,,3.06580332107842e-05,None,1,1.9131035769823939,1327.2632379379938,None,1327.2632379379938,None,1327.2632379379938,None,1329.2584782250342,None,1,0.834296231972985,1329.2584782250342,None,1329.2584782250342,None,1331.258840740018,None,1331.258840740018,None,1,1.1889719560276717,1331.258840740018,None,2,1.2840406830073334,1333.2587044060347,None,1333.2587044060347,None,1333.2587044060347,None,1335.26254811103,None,1335.26254811103,None,1,1.052258156996686,1335.26254811103,None,1337.261656616989,None,1337.261656616989,None,1,1337.261656616989,None,1.0522609220352024,001,19,2019_Oct_01_1439,viewing,3.1.2,60.22917635535253,
north.png,stims/wedding-6.1a.mp4,stims/wedding-6.1b.mp4,stims/wedding-6.2b.mp4,stims/wedding-6.3b.mp4,stims/wedding-6.4b.mp4,stims/wedding-6.5.mp4,stimsday2details/newpainting18.png,stimsday2details/painting6.png,stimsday2details/newperson34.png,stimsday2details/couple6.png,stimsday2details/new34.png,stimsday2details/gift6.png,stimsday2details/n6.png,stimsday2details/cn6.png,stimsday2details/ct6.png,stimsday2details/t6.png,0,9,9,9,0,0,0,0,,,,,,,,,,,,,,,,,,,,,,,,,None,None,,,,,,,,,,,,,,,,,,,,,,,,,,,,,,,,,,,,,,,,,,,,,,,,,,,,,,,,,,,,,,,,,,,,,,,,,,,,,,,,,,,,,,,,,,,,,001,19,2019_Oct_01_1439,viewing,3.1.2,60.22917635535253,
north.png,stims/wedding-6.1a.mp4,stims/wedding-6.1b.mp4,stims/wedding-6.2b.mp4,stims/wedding-6.3b.mp4,stims/wedding-6.4b.mp4,stims/wedding-6.5.mp4,stimsday2details/newpainting18.png,stimsday2details/painting6.png,stimsday2details/newperson34.png,stimsday2details/couple6.png,stimsday2details/new34.png,stimsday2details/gift6.png,stimsday2details/n6.png,stimsday2details/cn6.png,stimsday2details/ct6.png,stimsday2details/t6.png,0,9,9,9,,,,,0,0,0,0,,,,,,,,,,,,,,,,,,,,,,,1339.4757186570205,None,,,,,,,,,,,,,,,,,,,,,,,,,,,,,,,,,,,,,,,,,,,,,,,,,,,,,,,,,,,,,,,,,,,,,,,,,,,,,,,,,,,,,,,,,,,001,19,2019_Oct_01_1439,viewing,3.1.2,60.22917635535253,
north.png,stims/wedding-6.1a.mp4,stims/wedding-6.1b.mp4,stims/wedding-6.2b.mp4,stims/wedding-6.3b.mp4,stims/wedding-6.4b.mp4,stims/wedding-6.5.mp4,stimsday2details/newpainting18.png,stimsday2details/painting6.png,stimsday2details/newperson34.png,stimsday2details/couple6.png,stimsday2details/new34.png,stimsday2details/gift6.png,stimsday2details/n6.png,stimsday2details/cn6.png,stimsday2details/ct6.png,stimsday2details/t6.png,0,9,9,9,,,,,,,,,0,0,0,0,,,,,,,,,,,,,,,,,,,,,2.892445384990424,None,1349.5918732929858,1374.708231350989,1374.708231350989,None,1383.7243628370343,None,1400.7249194270116,1423.7298864420154,1423.7433339019772,None,1447.7231965730316,None,,,,,,,,,,,,,,,,,,,,,,,,,,,,,,,,,,,,,,,,,,,,,,,,,,,,,,,,,,,,,,,,,,,,,,,,,,,,,001,19,2019_Oct_01_1439,viewing,3.1.2,60.22917635535253,
north.png,stims/wedding-6.1a.mp4,stims/wedding-6.1b.mp4,stims/wedding-6.2b.mp4,stims/wedding-6.3b.mp4,stims/wedding-6.4b.mp4,stims/wedding-6.5.mp4,stimsday2details/newpainting18.png,stimsday2details/painting6.png,stimsday2details/newperson34.png,stimsday2details/couple6.png,stimsday2details/new34.png,stimsday2details/gift6.png,stimsday2details/n6.png,stimsday2details/cn6.png,stimsday2details/ct6.png,stimsday2details/t6.png,0,9,9,9,,,,,,,,,,,,,0,0,0,0,,,,,,,,,,,,,,,,,,,,,,,,,,,,,,,None,None,None,None,None,None,None,None,None,None,None,None,None,None,None,None,None,None,None,,None,None,None,,None,None,,,,,,,,,,,,,,,,,,,,,,,,,,,,,,,,,,,,,,,,,,,,,,,,,,,001,19,2019_Oct_01_1439,viewing,3.1.2,60.22917635535253,
north.png,stims/wedding-6.1a.mp4,stims/wedding-6.1b.mp4,stims/wedding-6.2b.mp4,stims/wedding-6.3b.mp4,stims/wedding-6.4b.mp4,stims/wedding-6.5.mp4,stimsday2details/newpainting18.png,stimsday2details/painting6.png,stimsday2details/newperson34.png,stimsday2details/couple6.png,stimsday2details/new34.png,stimsday2details/gift6.png,stimsday2details/n6.png,stimsday2details/cn6.png,stimsday2details/ct6.png,stimsday2details/t6.png,0,9,9,9,,,,,,,,,,,,,,,,,,,,,,,,,,,,,,,,,,,,,,,,,,,,,,,,,,,,,,,,,,,,,,,,,,,,,,,,,4.253903171047568e-05,None,1,1.1725279049715027,1471.756814309978,None,1471.756814309978,None,1471.756814309978,None,1473.7402175660245,None,2,1.1383160349796526,1473.7402175660245,None,1473.7402175660245,None,1475.7402817740222,None,1475.7402817740222,None,2,1.1226488850079477,1475.7402817740222,None,2,1.4887500230106525,1477.7279452609946,None,1477.7279452609946,None,1477.7279452609946,None,1479.7276525290217,None,1479.7276525290217,None,2,1.0030643060454167,1479.7276525290217,None,1481.7282484560274,None,1481.7282484560274,None,1,1481.7282484560274,None,0.8844421629910357,001,19,2019_Oct_01_1439,viewing,3.1.2,60.22917635535253,
north.png,stims/wedding-34.1a.mp4,stims/wedding-34.1b.mp4,stims/wedding-34.2a.mp4,stims/wedding-34.3a.mp4,stims/wedding-34.4a.mp4,stims/wedding-34.5.mp4,stimsday2details/egg34.png,stimsday2details/newegg17.png,stimsday2details/newperson35.png,stimsday2details/couple34.png,stimsday2details/gift34.png,stimsday2details/new35.png,stimsday2details/cn34.png,stimsday2details/n34.png,stimsday2details/t34.png,stimsday2details/ct34.png,0,10,10,10,0,0,0,0,,,,,,,,,,,,,,,,,,,,,,,,,None,None,,,,,,,,,,,,,,,,,,,,,,,,,,,,,,,,,,,,,,,,,,,,,,,,,,,,,,,,,,,,,,,,,,,,,,,,,,,,,,,,,,,,,,,,,,,,,001,19,2019_Oct_01_1439,viewing,3.1.2,60.22917635535253,
north.png,stims/wedding-34.1a.mp4,stims/wedding-34.1b.mp4,stims/wedding-34.2a.mp4,stims/wedding-34.3a.mp4,stims/wedding-34.4a.mp4,stims/wedding-34.5.mp4,stimsday2details/egg34.png,stimsday2details/newegg17.png,stimsday2details/newperson35.png,stimsday2details/couple34.png,stimsday2details/gift34.png,stimsday2details/new35.png,stimsday2details/cn34.png,stimsday2details/n34.png,stimsday2details/t34.png,stimsday2details/ct34.png,0,10,10,10,,,,,0,0,0,0,,,,,,,,,,,,,,,,,,,,,,,1483.9738883450045,None,,,,,,,,,,,,,,,,,,,,,,,,,,,,,,,,,,,,,,,,,,,,,,,,,,,,,,,,,,,,,,,,,,,,,,,,,,,,,,,,,,,,,,,,,,,001,19,2019_Oct_01_1439,viewing,3.1.2,60.22917635535253,
north.png,stims/wedding-34.1a.mp4,stims/wedding-34.1b.mp4,stims/wedding-34.2a.mp4,stims/wedding-34.3a.mp4,stims/wedding-34.4a.mp4,stims/wedding-34.5.mp4,stimsday2details/egg34.png,stimsday2details/newegg17.png,stimsday2details/newperson35.png,stimsday2details/couple34.png,stimsday2details/gift34.png,stimsday2details/new35.png,stimsday2details/cn34.png,stimsday2details/n34.png,stimsday2details/t34.png,stimsday2details/ct34.png,0,10,10,10,,,,,,,,,0,0,0,0,,,,,,,,,,,,,,,,,,,,,2.99795410502702,None,1494.2055463389843,1519.2058285879903,1519.2232751289848,1528.205247564998,1528.223357090028,None,1545.2219465310336,None,1568.222292334016,1592.2056023710174,1592.222281747032,None,,,,,,,,,,,,,,,,,,,,,,,,,,,,,,,,,,,,,,,,,,,,,,,,,,,,,,,,,,,,,,,,,,,,,,,,,,,,,001,19,2019_Oct_01_1439,viewing,3.1.2,60.22917635535253,
north.png,stims/wedding-34.1a.mp4,stims/wedding-34.1b.mp4,stims/wedding-34.2a.mp4,stims/wedding-34.3a.mp4,stims/wedding-34.4a.mp4,stims/wedding-34.5.mp4,stimsday2details/egg34.png,stimsday2details/newegg17.png,stimsday2details/newperson35.png,stimsday2details/couple34.png,stimsday2details/gift34.png,stimsday2details/new35.png,stimsday2details/cn34.png,stimsday2details/n34.png,stimsday2details/t34.png,stimsday2details/ct34.png,0,10,10,10,,,,,,,,,,,,,0,0,0,0,,,,,,,,,,,,,,,,,,,,,,,,,,,,,,,None,None,None,None,None,None,None,None,None,None,None,None,None,None,None,None,None,None,None,,None,None,None,,None,None,,,,,,,,,,,,,,,,,,,,,,,,,,,,,,,,,,,,,,,,,,,,,,,,,,,001,19,2019_Oct_01_1439,viewing,3.1.2,60.22917635535253,
north.png,stims/wedding-34.1a.mp4,stims/wedding-34.1b.mp4,stims/wedding-34.2a.mp4,stims/wedding-34.3a.mp4,stims/wedding-34.4a.mp4,stims/wedding-34.5.mp4,stimsday2details/egg34.png,stimsday2details/newegg17.png,stimsday2details/newperson35.png,stimsday2details/couple34.png,stimsday2details/gift34.png,stimsday2details/new35.png,stimsday2details/cn34.png,stimsday2details/n34.png,stimsday2details/t34.png,stimsday2details/ct34.png,0,10,10,10,,,,,,,,,,,,,,,,,,,,,,,,,,,,,,,,,,,,,,,,,,,,,,,,,,,,,,,,,,,,,,,,,,,,,,,,,2.524995943531394e-05,None,None,,1616.1905246759998,None,1616.1905246759998,None,1616.1905246759998,None,1618.1933664690005,None,None,,1618.1933664690005,None,1618.1933664690005,None,1620.1930997439777,None,1620.1930997439777,None,None,,1620.1930997439777,None,3,1.2450138510321267,1622.1929025480058,None,1622.1929025480058,None,1622.1929025480058,None,1624.1885618939996,None,1624.1885618939996,None,4,0.6885453749564476,1624.1885618939996,None,1626.1887195029994,None,1626.1887195029994,None,None,1626.1887195029994,None,,001,19,2019_Oct_01_1439,viewing,3.1.2,60.22917635535253,
south.png,stims/wedding-19.1a.mp4,stims/wedding-19.1b.mp4,stims/wedding-19.2a.mp4,stims/wedding-19.3b.mp4,stims/wedding-19.4a.mp4,stims/wedding-19.5.mp4,stimsday2details/newegg18.png,stimsday2details/egg19.png,stimsday2details/newperson36.png,stimsday2details/couple19.png,stimsday2details/gift19.png,stimsday2details/new36.png,stimsday2details/cn19.png,stimsday2details/n19.png,stimsday2details/ct19.png,stimsday2details/t19.png,0,11,11,11,0,0,0,0,,,,,,,,,,,,,,,,,,,,,,,,,1628.1886088009924,None,,,,,,,,,,,,,,,,,,,,,,,,,,,,,,,,,,,,,,,,,,,,,,,,,,,,,,,,,,,,,,,,,,,,,,,,,,,,,,,,,,,,,,,,,,,,,001,19,2019_Oct_01_1439,viewing,3.1.2,60.22917635535253,
south.png,stims/wedding-19.1a.mp4,stims/wedding-19.1b.mp4,stims/wedding-19.2a.mp4,stims/wedding-19.3b.mp4,stims/wedding-19.4a.mp4,stims/wedding-19.5.mp4,stimsday2details/newegg18.png,stimsday2details/egg19.png,stimsday2details/newperson36.png,stimsday2details/couple19.png,stimsday2details/gift19.png,stimsday2details/new36.png,stimsday2details/cn19.png,stimsday2details/n19.png,stimsday2details/ct19.png,stimsday2details/t19.png,0,11,11,11,,,,,0,0,0,0,,,,,,,,,,,,,,,,,,,,,,,None,None,,,,,,,,,,,,,,,,,,,,,,,,,,,,,,,,,,,,,,,,,,,,,,,,,,,,,,,,,,,,,,,,,,,,,,,,,,,,,,,,,,,,,,,,,,,001,19,2019_Oct_01_1439,viewing,3.1.2,60.22917635535253,
south.png,stims/wedding-19.1a.mp4,stims/wedding-19.1b.mp4,stims/wedding-19.2a.mp4,stims/wedding-19.3b.mp4,stims/wedding-19.4a.mp4,stims/wedding-19.5.mp4,stimsday2details/newegg18.png,stimsday2details/egg19.png,stimsday2details/newperson36.png,stimsday2details/couple19.png,stimsday2details/gift19.png,stimsday2details/new36.png,stimsday2details/cn19.png,stimsday2details/n19.png,stimsday2details/ct19.png,stimsday2details/t19.png,0,11,11,11,,,,,,,,,0,0,0,0,,,,,,,,,,,,,,,,,,,,,None,None,None,None,None,None,None,None,None,None,None,None,None,None,,,,,,,,,,,,,,,,,,,,,,,,,,,,,,,,,,,,,,,,,,,,,,,,,,,,,,,,,,,,,,,,,,,,,,,,,,,,,001,19,2019_Oct_01_1439,viewing,3.1.2,60.22917635535253,
south.png,stims/wedding-19.1a.mp4,stims/wedding-19.1b.mp4,stims/wedding-19.2a.mp4,stims/wedding-19.3b.mp4,stims/wedding-19.4a.mp4,stims/wedding-19.5.mp4,stimsday2details/newegg18.png,stimsday2details/egg19.png,stimsday2details/newperson36.png,stimsday2details/couple19.png,stimsday2details/gift19.png,stimsday2details/new36.png,stimsday2details/cn19.png,stimsday2details/n19.png,stimsday2details/ct19.png,stimsday2details/t19.png,0,11,11,11,,,,,,,,,,,,,0,0,0,0,,,,,,,,,,,,,,,,,,,,,,,,,,,,,,,3.0631172949797474,None,1642.2038927089889,1667.136863198015,1667.154822366021,None,1676.1423711880343,1693.1407183430274,1693.1542558229994,1697.1419271570048,1697.153888337023,1720.1413461160264,1720.1532244629925,1724.1406573160202,1724.1529463449842,None,1748.1406515800045,None,['4'],[2.2524134760024026],1692.1539327430073,1697.1419271570048,"['3', '3']","[2.5973180559813045, 3.34680690796813]",1719.15767631802,1724.1406573160202,,,,,,,,,,,,,,,,,,,,,,,,,,,,,,,,,,,,,,,,,,,,,,,,,,,001,19,2019_Oct_01_1439,viewing,3.1.2,60.22917635535253,
south.png,stims/wedding-19.1a.mp4,stims/wedding-19.1b.mp4,stims/wedding-19.2a.mp4,stims/wedding-19.3b.mp4,stims/wedding-19.4a.mp4,stims/wedding-19.5.mp4,stimsday2details/newegg18.png,stimsday2details/egg19.png,stimsday2details/newperson36.png,stimsday2details/couple19.png,stimsday2details/gift19.png,stimsday2details/new36.png,stimsday2details/cn19.png,stimsday2details/n19.png,stimsday2details/ct19.png,stimsday2details/t19.png,0,11,11,11,,,,,,,,,,,,,,,,,,,,,,,,,,,,,,,,,,,,,,,,,,,,,,,,,,,,,,,,,,,,,,,,,,,,,,,,,3.728497540578246e-05,None,3,1.3517134180292487,1769.4030685729813,None,1769.4030685729813,None,1769.4030685729813,None,1771.402661708009,None,3,0.8848941930336878,1771.402661708009,None,1771.402661708009,None,1773.4120643130154,None,1773.4120643130154,None,3,1.1140249589807354,1773.4120643130154,None,3,1.1531195240095258,1775.4112515270244,None,1775.4112515270244,None,1775.4112515270244,None,1777.4114327610005,None,1777.4114327610005,None,4,1.2097747380030341,1777.4114327610005,None,1779.4065364020062,None,1779.4065364020062,None,None,1779.4065364020062,None,,001,19,2019_Oct_01_1439,viewing,3.1.2,60.22917635535253,
