northOrSouth,stimFile1a,stimFile1b,stimFile2,stimFile3,stimFile4,stimFile5,Qeggpainting1,Qeggpainting2,Qcharacter1,Qcharacter2,Qgift1,Qgift2,Qname1,Qname2,Qtheme1,Qtheme2,trials.thisRepN,trials.thisTrialN,trials.thisN,trials.thisIndex,South.thisRepN,South.thisTrialN,South.thisN,South.thisIndex,North.thisRepN,North.thisTrialN,North.thisN,North.thisIndex,noQtrials.thisRepN,noQtrials.thisTrialN,noQtrials.thisN,noQtrials.thisIndex,Qtrials.thisRepN,Qtrials.thisTrialN,Qtrials.thisN,Qtrials.thisIndex,text.started,text.stopped,prep_trigger.keys,prep_trigger.rt,prep_trigger.started,prep_trigger.stopped,waiting.started,waiting.stopped,trigger.keys,trigger.rt,trigger.started,trigger.stopped,southCueImage.started,southCueImage.stopped,northCueImage.started,northCueImage.stopped,trialNoQs.started,trialNoQs.stopped,vid1a.started,vid1a.stopped,vid1b.started,vid1b.stopped,vid2.started,vid2.stopped,vid3.started,vid3.stopped,vid4.started,vid4.stopped,vid5.started,vid5.stopped,ISI2.started,ISI2.stopped,vid1a_q.started,vid1a_q.stopped,vid1b_q.started,vid1b_q.stopped,vid2_q.started,vid2_q.stopped,l2q.started,l2q.stopped,vid3_q.started,vid3_q.stopped,l3q.started,l3q.stopped,vid4_q.started,vid4_q.stopped,vid5_q.started,vid5_q.stopped,key_resp_2.keys,key_resp_2.rt,key_resp_2.started,key_resp_2.stopped,key_resp_3.keys,key_resp_3.rt,key_resp_3.started,key_resp_3.stopped,ISI7.started,ISI7.stopped,nameQresp.keys,nameQresp.rt,nameQresp.started,nameQresp.stopped,nameQ1.started,nameQ1.stopped,nameQ2.started,nameQ2.stopped,eggPainting1.started,eggPainting1.stopped,eggPaintingQresp.keys,eggPaintingQresp.rt,eggPaintingQresp.started,eggPaintingQresp.stopped,eggPainting2.started,eggPainting2.stopped,character1.started,character1.stopped,character2.started,character2.stopped,Qcharacter.keys,Qcharacter.rt,Qcharacter.started,Qcharacter.stopped,themeQresp.keys,themeQresp.rt,themeQresp.started,themeQresp.stopped,themeQ1.started,themeQ1.stopped,themeQ2.started,themeQ2.stopped,gift1.started,gift1.stopped,gift2.started,gift2.stopped,giftQresp.keys,giftQresp.rt,giftQresp.started,giftQresp.stopped,northorsouth1.started,northorsouth1.stopped,northorsouth2.started,northorsouth2.stopped,northOrSouthQ.keys,northOrSouthQ.rt,northOrSouthQ.started,northOrSouthQ.stopped,session,participant,date,expName,psychopyVersion,frameRate,
,,,,,,,,,,,,,,,,,,,,,,,,,,,,,,,,,,,,,6.518487171269953,None,g,2.0550311133265495,6.518487171269953,None,,,,,,,,,,,,,,,,,,,,,,,,,,,,,,,,,,,,,,,,,,,,,,,,,,,,,,,,,,,,,,,,,,,,,,,,,,,,,,,,,,,,,,,,,,,,,,,,,,,,,001,39,2020_Jan_17_1344,viewing,3.1.2,None,
,,,,,,,,,,,,,,,,,,,,,,,,,,,,,,,,,,,,,,,,,,,8.585527697578073,None,equal,19.806584388017654,8.585527697578073,None,,,,,,,,,,,,,,,,,,,,,,,,,,,,,,,,,,,,,,,,,,,,,,,,,,,,,,,,,,,,,,,,,,,,,,,,,,,,,,,,,,,,,,,,,,,,,,,001,39,2020_Jan_17_1344,viewing,3.1.2,None,
south.png,stims/wedding-34.1a.mp4,stims/wedding-34.1b.mp4,stims/wedding-34.2b.mp4,stims/wedding-34.3a.mp4,stims/wedding-34.4b.mp4,stims/wedding-34.5.mp4,stimsday2details/painting34.png,stimsday2details/newpainting13.png,stimsday2details/newperson25.png,stimsday2details/couple34.png,stimsday2details/new25.png,stimsday2details/gift34.png,stimsday2details/cn34.png,stimsday2details/n34.png,stimsday2details/ct34.png,stimsday2details/t34.png,0,0,0,0,0,0,0,0,,,,,,,,,,,,,,,,,,,,,,,,,28.43761634454131,None,,,,,,,,,,,,,,,,,,,,,,,,,,,,,,,,,,,,,,,,,,,,,,,,,,,,,,,,,,,,,,,,,,,,,,,,,,,,,,,,,,,,,,,,,,,,,001,39,2020_Jan_17_1344,viewing,3.1.2,None,
south.png,stims/wedding-34.1a.mp4,stims/wedding-34.1b.mp4,stims/wedding-34.2b.mp4,stims/wedding-34.3a.mp4,stims/wedding-34.4b.mp4,stims/wedding-34.5.mp4,stimsday2details/painting34.png,stimsday2details/newpainting13.png,stimsday2details/newperson25.png,stimsday2details/couple34.png,stimsday2details/new25.png,stimsday2details/gift34.png,stimsday2details/cn34.png,stimsday2details/n34.png,stimsday2details/ct34.png,stimsday2details/t34.png,0,0,0,0,,,,,0,0,0,0,,,,,,,,,,,,,,,,,,,,,,,None,None,,,,,,,,,,,,,,,,,,,,,,,,,,,,,,,,,,,,,,,,,,,,,,,,,,,,,,,,,,,,,,,,,,,,,,,,,,,,,,,,,,,,,,,,,,,001,39,2020_Jan_17_1344,viewing,3.1.2,None,
south.png,stims/wedding-34.1a.mp4,stims/wedding-34.1b.mp4,stims/wedding-34.2b.mp4,stims/wedding-34.3a.mp4,stims/wedding-34.4b.mp4,stims/wedding-34.5.mp4,stimsday2details/painting34.png,stimsday2details/newpainting13.png,stimsday2details/newperson25.png,stimsday2details/couple34.png,stimsday2details/new25.png,stimsday2details/gift34.png,stimsday2details/cn34.png,stimsday2details/n34.png,stimsday2details/ct34.png,stimsday2details/t34.png,0,0,0,0,,,,,,,,,0,0,0,0,,,,,,,,,,,,,,,,,,,,,None,None,None,None,None,None,None,None,None,None,None,None,None,None,,,,,,,,,,,,,,,,,,,,,,,,,,,,,,,,,,,,,,,,,,,,,,,,,,,,,,,,,,,,,,,,,,,,,,,,,,,,,001,39,2020_Jan_17_1344,viewing,3.1.2,None,
south.png,stims/wedding-34.1a.mp4,stims/wedding-34.1b.mp4,stims/wedding-34.2b.mp4,stims/wedding-34.3a.mp4,stims/wedding-34.4b.mp4,stims/wedding-34.5.mp4,stimsday2details/painting34.png,stimsday2details/newpainting13.png,stimsday2details/newperson25.png,stimsday2details/couple34.png,stimsday2details/new25.png,stimsday2details/gift34.png,stimsday2details/cn34.png,stimsday2details/n34.png,stimsday2details/ct34.png,stimsday2details/t34.png,0,0,0,0,,,,,,,,,,,,,0,0,0,0,,,,,,,,,,,,,,,,,,,,,,,,,,,,,,,2.7446249816566706,None,41.33509061764926,66.58493719156832,66.58493719156832,None,75.58412384800613,None,92.58410381898284,96.58530210517347,96.58530210517347,None,119.60074105113745,123.58447364717722,123.58447364717722,None,147.59988706186414,None,['2'],[2.752633194439113],91.58414829242975,96.58530210517347,['2'],[2.639719900675118],118.6011380776763,123.58447364717722,,,,,,,,,,,,,,,,,,,,,,,,,,,,,,,,,,,,,,,,,,,,,,,,,,,001,39,2020_Jan_17_1344,viewing,3.1.2,None,
south.png,stims/wedding-34.1a.mp4,stims/wedding-34.1b.mp4,stims/wedding-34.2b.mp4,stims/wedding-34.3a.mp4,stims/wedding-34.4b.mp4,stims/wedding-34.5.mp4,stimsday2details/painting34.png,stimsday2details/newpainting13.png,stimsday2details/newperson25.png,stimsday2details/couple34.png,stimsday2details/new25.png,stimsday2details/gift34.png,stimsday2details/cn34.png,stimsday2details/n34.png,stimsday2details/ct34.png,stimsday2details/t34.png,0,0,0,0,,,,,,,,,,,,,,,,,,,,,,,,,,,,,,,,,,,,,,,,,,,,,,,,,,,,,,,,,,,,,,,,,,,,,,,,,2.76835635304451e-05,None,2,1.1856649611145258,167.93359243683517,None,167.93359243683517,None,167.93359243683517,None,169.91609519906342,None,1,0.7367980498820543,169.91609519906342,None,169.91609519906342,None,171.91672101058066,None,171.91672101058066,None,2,0.7532245591282845,171.91672101058066,None,2,1.0365658141672611,173.91631458699703,None,173.91631458699703,None,173.91631458699703,None,175.91718048416078,None,175.91718048416078,None,2,0.8354936921969056,175.91718048416078,None,177.916886867024,None,177.916886867024,None,2,1.0848225373774767,177.916886867024,None,001,39,2020_Jan_17_1344,viewing,3.1.2,None,
north.png,stims/wedding-22.1a.mp4,stims/wedding-22.1b.mp4,stims/wedding-22.2a.mp4,stims/wedding-22.3a.mp4,stims/wedding-22.4a.mp4,stims/wedding-22.5.mp4,stimsday2details/egg22.png,stimsday2details/newegg13.png,stimsday2details/newperson26.png,stimsday2details/couple22.png,stimsday2details/gift22.png,stimsday2details/new26.png,stimsday2details/cn22.png,stimsday2details/n22.png,stimsday2details/t22.png,stimsday2details/ct22.png,0,1,1,1,0,0,0,0,,,,,,,,,,,,,,,,,,,,,,,,,None,None,,,,,,,,,,,,,,,,,,,,,,,,,,,,,,,,,,,,,,,,,,,,,,,,,,,,,,,,,,,,,,,,,,,,,,,,,,,,,,,,,,,,,,,,,,,,,001,39,2020_Jan_17_1344,viewing,3.1.2,None,
north.png,stims/wedding-22.1a.mp4,stims/wedding-22.1b.mp4,stims/wedding-22.2a.mp4,stims/wedding-22.3a.mp4,stims/wedding-22.4a.mp4,stims/wedding-22.5.mp4,stimsday2details/egg22.png,stimsday2details/newegg13.png,stimsday2details/newperson26.png,stimsday2details/couple22.png,stimsday2details/gift22.png,stimsday2details/new26.png,stimsday2details/cn22.png,stimsday2details/n22.png,stimsday2details/t22.png,stimsday2details/ct22.png,0,1,1,1,,,,,0,0,0,0,,,,,,,,,,,,,,,,,,,,,,,179.967161311768,None,,,,,,,,,,,,,,,,,,,,,,,,,,,,,,,,,,,,,,,,,,,,,,,,,,,,,,,,,,,,,,,,,,,,,,,,,,,,,,,,,,,,,,,,,,,001,39,2020_Jan_17_1344,viewing,3.1.2,None,
north.png,stims/wedding-22.1a.mp4,stims/wedding-22.1b.mp4,stims/wedding-22.2a.mp4,stims/wedding-22.3a.mp4,stims/wedding-22.4a.mp4,stims/wedding-22.5.mp4,stimsday2details/egg22.png,stimsday2details/newegg13.png,stimsday2details/newperson26.png,stimsday2details/couple22.png,stimsday2details/gift22.png,stimsday2details/new26.png,stimsday2details/cn22.png,stimsday2details/n22.png,stimsday2details/t22.png,stimsday2details/ct22.png,0,1,1,1,,,,,,,,,0,0,0,0,,,,,,,,,,,,,,,,,,,,,3.1048223581165075,None,190.13295146264136,215.01926749013364,215.03247696813196,None,224.03259386029094,241.0166558418423,241.03298088163137,264.0154388928786,264.03250012826174,288.0159180602059,288.03238326869905,None,,,,,,,,,,,,,,,,,,,,,,,,,,,,,,,,,,,,,,,,,,,,,,,,,,,,,,,,,,,,,,,,,,,,,,,,,,,,,001,39,2020_Jan_17_1344,viewing,3.1.2,None,
north.png,stims/wedding-22.1a.mp4,stims/wedding-22.1b.mp4,stims/wedding-22.2a.mp4,stims/wedding-22.3a.mp4,stims/wedding-22.4a.mp4,stims/wedding-22.5.mp4,stimsday2details/egg22.png,stimsday2details/newegg13.png,stimsday2details/newperson26.png,stimsday2details/couple22.png,stimsday2details/gift22.png,stimsday2details/new26.png,stimsday2details/cn22.png,stimsday2details/n22.png,stimsday2details/t22.png,stimsday2details/ct22.png,0,1,1,1,,,,,,,,,,,,,0,0,0,0,,,,,,,,,,,,,,,,,,,,,,,,,,,,,,,None,None,None,None,None,None,None,None,None,None,None,None,None,None,None,None,None,None,None,,None,None,None,,None,None,,,,,,,,,,,,,,,,,,,,,,,,,,,,,,,,,,,,,,,,,,,,,,,,,,,001,39,2020_Jan_17_1344,viewing,3.1.2,None,
north.png,stims/wedding-22.1a.mp4,stims/wedding-22.1b.mp4,stims/wedding-22.2a.mp4,stims/wedding-22.3a.mp4,stims/wedding-22.4a.mp4,stims/wedding-22.5.mp4,stimsday2details/egg22.png,stimsday2details/newegg13.png,stimsday2details/newperson26.png,stimsday2details/couple22.png,stimsday2details/gift22.png,stimsday2details/new26.png,stimsday2details/cn22.png,stimsday2details/n22.png,stimsday2details/t22.png,stimsday2details/ct22.png,0,1,1,1,,,,,,,,,,,,,,,,,,,,,,,,,,,,,,,,,,,,,,,,,,,,,,,,,,,,,,,,,,,,,,,,,,,,,,,,,3.786291927099228e-05,None,2,0.7673628777265549,311.61580972839147,None,311.61580972839147,None,311.61580972839147,None,313.6157090784982,None,1,0.9016499882563949,313.6157090784982,None,313.6157090784982,None,315.61454806197435,None,315.61454806197435,None,2,0.9238728601485491,315.61454806197435,None,None,,317.61965954862535,None,317.61965954862535,None,317.61965954862535,None,319.61500128451735,None,319.61500128451735,None,1,1.2860101973637938,319.61500128451735,None,321.6149890543893,None,321.6149890543893,None,1,1.1667376905679703,321.6149890543893,None,001,39,2020_Jan_17_1344,viewing,3.1.2,None,
north.png,stims/wedding-20.1a.mp4,stims/wedding-20.1b.mp4,stims/wedding-20.2b.mp4,stims/wedding-20.3b.mp4,stims/wedding-20.4b.mp4,stims/wedding-20.5.mp4,stimsday2details/newpainting14.png,stimsday2details/painting20.png,stimsday2details/newperson27.png,stimsday2details/couple20.png,stimsday2details/gift20.png,stimsday2details/new27.png,stimsday2details/cn20.png,stimsday2details/n20.png,stimsday2details/t20.png,stimsday2details/ct20.png,0,2,2,2,0,0,0,0,,,,,,,,,,,,,,,,,,,,,,,,,None,None,,,,,,,,,,,,,,,,,,,,,,,,,,,,,,,,,,,,,,,,,,,,,,,,,,,,,,,,,,,,,,,,,,,,,,,,,,,,,,,,,,,,,,,,,,,,,001,39,2020_Jan_17_1344,viewing,3.1.2,None,
north.png,stims/wedding-20.1a.mp4,stims/wedding-20.1b.mp4,stims/wedding-20.2b.mp4,stims/wedding-20.3b.mp4,stims/wedding-20.4b.mp4,stims/wedding-20.5.mp4,stimsday2details/newpainting14.png,stimsday2details/painting20.png,stimsday2details/newperson27.png,stimsday2details/couple20.png,stimsday2details/gift20.png,stimsday2details/new27.png,stimsday2details/cn20.png,stimsday2details/n20.png,stimsday2details/t20.png,stimsday2details/ct20.png,0,2,2,2,,,,,0,0,0,0,,,,,,,,,,,,,,,,,,,,,,,323.68206935562193,None,,,,,,,,,,,,,,,,,,,,,,,,,,,,,,,,,,,,,,,,,,,,,,,,,,,,,,,,,,,,,,,,,,,,,,,,,,,,,,,,,,,,,,,,,,,001,39,2020_Jan_17_1344,viewing,3.1.2,None,
north.png,stims/wedding-20.1a.mp4,stims/wedding-20.1b.mp4,stims/wedding-20.2b.mp4,stims/wedding-20.3b.mp4,stims/wedding-20.4b.mp4,stims/wedding-20.5.mp4,stimsday2details/newpainting14.png,stimsday2details/painting20.png,stimsday2details/newperson27.png,stimsday2details/couple20.png,stimsday2details/gift20.png,stimsday2details/new27.png,stimsday2details/cn20.png,stimsday2details/n20.png,stimsday2details/t20.png,stimsday2details/ct20.png,0,2,2,2,,,,,,,,,0,0,0,0,,,,,,,,,,,,,,,,,,,,,2.8750694300979376,None,333.64760877750814,358.7475778590888,358.7646624352783,None,367.7644034847617,None,384.76418875157833,407.7463848441839,407.7637743894011,None,431.76392685528845,None,,,,,,,,,,,,,,,,,,,,,,,,,,,,,,,,,,,,,,,,,,,,,,,,,,,,,,,,,,,,,,,,,,,,,,,,,,,,,001,39,2020_Jan_17_1344,viewing,3.1.2,None,
north.png,stims/wedding-20.1a.mp4,stims/wedding-20.1b.mp4,stims/wedding-20.2b.mp4,stims/wedding-20.3b.mp4,stims/wedding-20.4b.mp4,stims/wedding-20.5.mp4,stimsday2details/newpainting14.png,stimsday2details/painting20.png,stimsday2details/newperson27.png,stimsday2details/couple20.png,stimsday2details/gift20.png,stimsday2details/new27.png,stimsday2details/cn20.png,stimsday2details/n20.png,stimsday2details/t20.png,stimsday2details/ct20.png,0,2,2,2,,,,,,,,,,,,,0,0,0,0,,,,,,,,,,,,,,,,,,,,,,,,,,,,,,,None,None,None,None,None,None,None,None,None,None,None,None,None,None,None,None,None,None,None,,None,None,None,,None,None,,,,,,,,,,,,,,,,,,,,,,,,,,,,,,,,,,,,,,,,,,,,,,,,,,,001,39,2020_Jan_17_1344,viewing,3.1.2,None,
north.png,stims/wedding-20.1a.mp4,stims/wedding-20.1b.mp4,stims/wedding-20.2b.mp4,stims/wedding-20.3b.mp4,stims/wedding-20.4b.mp4,stims/wedding-20.5.mp4,stimsday2details/newpainting14.png,stimsday2details/painting20.png,stimsday2details/newperson27.png,stimsday2details/couple20.png,stimsday2details/gift20.png,stimsday2details/new27.png,stimsday2details/cn20.png,stimsday2details/n20.png,stimsday2details/t20.png,stimsday2details/ct20.png,0,2,2,2,,,,,,,,,,,,,,,,,,,,,,,,,,,,,,,,,,,,,,,,,,,,,,,,,,,,,,,,,,,,,,,,,,,,,,,,,3.566965460777283e-05,None,2,0.8156888391822577,454.41725192498416,None,454.41725192498416,None,454.41725192498416,None,456.41393587365746,None,2,0.6010299604386091,456.41393587365746,None,456.41393587365746,None,458.4137454293668,None,458.4137454293668,None,2,0.6727767530828714,458.4137454293668,None,1,1.9153407430276275,460.4166681552306,None,460.4166681552306,None,460.4166681552306,None,462.413800759241,None,462.413800759241,None,1,0.6657165996730328,462.413800759241,None,464.41289275325835,None,464.41289275325835,None,1,0.6233164640143514,464.41289275325835,None,001,39,2020_Jan_17_1344,viewing,3.1.2,None,
south.png,stims/wedding-28.1a.mp4,stims/wedding-28.1b.mp4,stims/wedding-28.2a.mp4,stims/wedding-28.3b.mp4,stims/wedding-28.4a.mp4,stims/wedding-28.5.mp4,stimsday2details/newegg14.png,stimsday2details/egg28.png,stimsday2details/couple28.png,stimsday2details/newperson28.png,stimsday2details/gift28.png,stimsday2details/new28.png,stimsday2details/cn28.png,stimsday2details/n28.png,stimsday2details/t28.png,stimsday2details/ct28.png,0,3,3,3,0,0,0,0,,,,,,,,,,,,,,,,,,,,,,,,,466.41323079075664,None,,,,,,,,,,,,,,,,,,,,,,,,,,,,,,,,,,,,,,,,,,,,,,,,,,,,,,,,,,,,,,,,,,,,,,,,,,,,,,,,,,,,,,,,,,,,,001,39,2020_Jan_17_1344,viewing,3.1.2,None,
south.png,stims/wedding-28.1a.mp4,stims/wedding-28.1b.mp4,stims/wedding-28.2a.mp4,stims/wedding-28.3b.mp4,stims/wedding-28.4a.mp4,stims/wedding-28.5.mp4,stimsday2details/newegg14.png,stimsday2details/egg28.png,stimsday2details/couple28.png,stimsday2details/newperson28.png,stimsday2details/gift28.png,stimsday2details/new28.png,stimsday2details/cn28.png,stimsday2details/n28.png,stimsday2details/t28.png,stimsday2details/ct28.png,0,3,3,3,,,,,0,0,0,0,,,,,,,,,,,,,,,,,,,,,,,None,None,,,,,,,,,,,,,,,,,,,,,,,,,,,,,,,,,,,,,,,,,,,,,,,,,,,,,,,,,,,,,,,,,,,,,,,,,,,,,,,,,,,,,,,,,,,001,39,2020_Jan_17_1344,viewing,3.1.2,None,
south.png,stims/wedding-28.1a.mp4,stims/wedding-28.1b.mp4,stims/wedding-28.2a.mp4,stims/wedding-28.3b.mp4,stims/wedding-28.4a.mp4,stims/wedding-28.5.mp4,stimsday2details/newegg14.png,stimsday2details/egg28.png,stimsday2details/couple28.png,stimsday2details/newperson28.png,stimsday2details/gift28.png,stimsday2details/new28.png,stimsday2details/cn28.png,stimsday2details/n28.png,stimsday2details/t28.png,stimsday2details/ct28.png,0,3,3,3,,,,,,,,,0,0,0,0,,,,,,,,,,,,,,,,,,,,,3.026336316950619,None,476.6302360855043,501.5953404409811,501.6132249450311,None,510.6135946530849,527.5954313827679,527.6115841483697,550.595177420415,550.6119501143694,574.5951983397827,574.6110368706286,None,,,,,,,,,,,,,,,,,,,,,,,,,,,,,,,,,,,,,,,,,,,,,,,,,,,,,,,,,,,,,,,,,,,,,,,,,,,,,001,39,2020_Jan_17_1344,viewing,3.1.2,None,
south.png,stims/wedding-28.1a.mp4,stims/wedding-28.1b.mp4,stims/wedding-28.2a.mp4,stims/wedding-28.3b.mp4,stims/wedding-28.4a.mp4,stims/wedding-28.5.mp4,stimsday2details/newegg14.png,stimsday2details/egg28.png,stimsday2details/couple28.png,stimsday2details/newperson28.png,stimsday2details/gift28.png,stimsday2details/new28.png,stimsday2details/cn28.png,stimsday2details/n28.png,stimsday2details/t28.png,stimsday2details/ct28.png,0,3,3,3,,,,,,,,,,,,,0,0,0,0,,,,,,,,,,,,,,,,,,,,,,,,,,,,,,,None,None,None,None,None,None,None,None,None,None,None,None,None,None,None,None,None,None,None,,None,None,None,,None,None,,,,,,,,,,,,,,,,,,,,,,,,,,,,,,,,,,,,,,,,,,,,,,,,,,,001,39,2020_Jan_17_1344,viewing,3.1.2,None,
south.png,stims/wedding-28.1a.mp4,stims/wedding-28.1b.mp4,stims/wedding-28.2a.mp4,stims/wedding-28.3b.mp4,stims/wedding-28.4a.mp4,stims/wedding-28.5.mp4,stimsday2details/newegg14.png,stimsday2details/egg28.png,stimsday2details/couple28.png,stimsday2details/newperson28.png,stimsday2details/gift28.png,stimsday2details/new28.png,stimsday2details/cn28.png,stimsday2details/n28.png,stimsday2details/t28.png,stimsday2details/ct28.png,0,3,3,3,,,,,,,,,,,,,,,,,,,,,,,,,,,,,,,,,,,,,,,,,,,,,,,,,,,,,,,,,,,,,,,,,,,,,,,,,4.077982157468796e-05,None,2,1.1207095263525844,598.9092418001965,None,598.9092418001965,None,598.9092418001965,None,600.895402662456,None,2,0.6184282591566443,600.895402662456,None,600.895402662456,None,602.8947817031294,None,602.8947817031294,None,1,0.8861286388710141,602.8947817031294,None,1,0.923101699911058,604.8942659227178,None,604.8942659227178,None,604.8942659227178,None,606.8984628077596,None,606.8984628077596,None,1,0.8199183028191328,606.8984628077596,None,608.8943209545687,None,608.8943209545687,None,1,0.6028279140591621,608.8943209545687,None,001,39,2020_Jan_17_1344,viewing,3.1.2,None,
south.png,stims/wedding-1.1a.mp4,stims/wedding-1.1b.mp4,stims/wedding-1.2b.mp4,stims/wedding-1.3a.mp4,stims/wedding-1.4b.mp4,stims/wedding-1.5.mp4,stimsday2details/newpainting15.png,stimsday2details/painting1.png,stimsday2details/newperson29.png,stimsday2details/couple1.png,stimsday2details/gift1.png,stimsday2details/new29.png,stimsday2details/n1.png,stimsday2details/cn1.png,stimsday2details/t1.png,stimsday2details/ct1.png,0,4,4,4,0,0,0,0,,,,,,,,,,,,,,,,,,,,,,,,,610.8948844084516,None,,,,,,,,,,,,,,,,,,,,,,,,,,,,,,,,,,,,,,,,,,,,,,,,,,,,,,,,,,,,,,,,,,,,,,,,,,,,,,,,,,,,,,,,,,,,,001,39,2020_Jan_17_1344,viewing,3.1.2,None,
south.png,stims/wedding-1.1a.mp4,stims/wedding-1.1b.mp4,stims/wedding-1.2b.mp4,stims/wedding-1.3a.mp4,stims/wedding-1.4b.mp4,stims/wedding-1.5.mp4,stimsday2details/newpainting15.png,stimsday2details/painting1.png,stimsday2details/newperson29.png,stimsday2details/couple1.png,stimsday2details/gift1.png,stimsday2details/new29.png,stimsday2details/n1.png,stimsday2details/cn1.png,stimsday2details/t1.png,stimsday2details/ct1.png,0,4,4,4,,,,,0,0,0,0,,,,,,,,,,,,,,,,,,,,,,,None,None,,,,,,,,,,,,,,,,,,,,,,,,,,,,,,,,,,,,,,,,,,,,,,,,,,,,,,,,,,,,,,,,,,,,,,,,,,,,,,,,,,,,,,,,,,,001,39,2020_Jan_17_1344,viewing,3.1.2,None,
south.png,stims/wedding-1.1a.mp4,stims/wedding-1.1b.mp4,stims/wedding-1.2b.mp4,stims/wedding-1.3a.mp4,stims/wedding-1.4b.mp4,stims/wedding-1.5.mp4,stimsday2details/newpainting15.png,stimsday2details/painting1.png,stimsday2details/newperson29.png,stimsday2details/couple1.png,stimsday2details/gift1.png,stimsday2details/new29.png,stimsday2details/n1.png,stimsday2details/cn1.png,stimsday2details/t1.png,stimsday2details/ct1.png,0,4,4,4,,,,,,,,,0,0,0,0,,,,,,,,,,,,,,,,,,,,,3.019377002492547,None,621.161003257148,646.1268943436444,646.1268943436444,None,655.1278252555057,None,672.1265309015289,695.1268739309162,695.1442522509024,719.1264918837696,719.1264918837696,None,,,,,,,,,,,,,,,,,,,,,,,,,,,,,,,,,,,,,,,,,,,,,,,,,,,,,,,,,,,,,,,,,,,,,,,,,,,,,001,39,2020_Jan_17_1344,viewing,3.1.2,None,
south.png,stims/wedding-1.1a.mp4,stims/wedding-1.1b.mp4,stims/wedding-1.2b.mp4,stims/wedding-1.3a.mp4,stims/wedding-1.4b.mp4,stims/wedding-1.5.mp4,stimsday2details/newpainting15.png,stimsday2details/painting1.png,stimsday2details/newperson29.png,stimsday2details/couple1.png,stimsday2details/gift1.png,stimsday2details/new29.png,stimsday2details/n1.png,stimsday2details/cn1.png,stimsday2details/t1.png,stimsday2details/ct1.png,0,4,4,4,,,,,,,,,,,,,0,0,0,0,,,,,,,,,,,,,,,,,,,,,,,,,,,,,,,None,None,None,None,None,None,None,None,None,None,None,None,None,None,None,None,None,None,None,,None,None,None,,None,None,,,,,,,,,,,,,,,,,,,,,,,,,,,,,,,,,,,,,,,,,,,,,,,,,,,001,39,2020_Jan_17_1344,viewing,3.1.2,None,
south.png,stims/wedding-1.1a.mp4,stims/wedding-1.1b.mp4,stims/wedding-1.2b.mp4,stims/wedding-1.3a.mp4,stims/wedding-1.4b.mp4,stims/wedding-1.5.mp4,stimsday2details/newpainting15.png,stimsday2details/painting1.png,stimsday2details/newperson29.png,stimsday2details/couple1.png,stimsday2details/gift1.png,stimsday2details/new29.png,stimsday2details/n1.png,stimsday2details/cn1.png,stimsday2details/t1.png,stimsday2details/ct1.png,0,4,4,4,,,,,,,,,,,,,,,,,,,,,,,,,,,,,,,,,,,,,,,,,,,,,,,,,,,,,,,,,,,,,,,,,,,,,,,,,3.818795084953308e-05,None,1,1.037450429983437,742.826139559038,None,742.826139559038,None,742.826139559038,None,744.825926178135,None,2,0.7850468261167407,744.825926178135,None,744.825926178135,None,746.8259758288041,None,746.8259758288041,None,2,0.8851280203089118,746.8259758288041,None,1,1.1521512465551496,748.8262957036495,None,748.8262957036495,None,748.8262957036495,None,750.8260494507849,None,750.8260494507849,None,1,0.7187074879184365,750.8260494507849,None,752.8259681621566,None,752.8259681621566,None,1,1.5238351691514254,752.8259681621566,None,001,39,2020_Jan_17_1344,viewing,3.1.2,None,
north.png,stims/wedding-29.1a.mp4,stims/wedding-29.1b.mp4,stims/wedding-29.2b.mp4,stims/wedding-29.3b.mp4,stims/wedding-29.4b.mp4,stims/wedding-29.5.mp4,stimsday2details/newpainting16.png,stimsday2details/painting29.png,stimsday2details/newperson30.png,stimsday2details/couple29.png,stimsday2details/new30.png,stimsday2details/gift29.png,stimsday2details/cn29.png,stimsday2details/n29.png,stimsday2details/t29.png,stimsday2details/ct29.png,0,5,5,5,0,0,0,0,,,,,,,,,,,,,,,,,,,,,,,,,None,None,,,,,,,,,,,,,,,,,,,,,,,,,,,,,,,,,,,,,,,,,,,,,,,,,,,,,,,,,,,,,,,,,,,,,,,,,,,,,,,,,,,,,,,,,,,,,001,39,2020_Jan_17_1344,viewing,3.1.2,None,
north.png,stims/wedding-29.1a.mp4,stims/wedding-29.1b.mp4,stims/wedding-29.2b.mp4,stims/wedding-29.3b.mp4,stims/wedding-29.4b.mp4,stims/wedding-29.5.mp4,stimsday2details/newpainting16.png,stimsday2details/painting29.png,stimsday2details/newperson30.png,stimsday2details/couple29.png,stimsday2details/new30.png,stimsday2details/gift29.png,stimsday2details/cn29.png,stimsday2details/n29.png,stimsday2details/t29.png,stimsday2details/ct29.png,0,5,5,5,,,,,0,0,0,0,,,,,,,,,,,,,,,,,,,,,,,754.9605544945225,None,,,,,,,,,,,,,,,,,,,,,,,,,,,,,,,,,,,,,,,,,,,,,,,,,,,,,,,,,,,,,,,,,,,,,,,,,,,,,,,,,,,,,,,,,,,001,39,2020_Jan_17_1344,viewing,3.1.2,None,
north.png,stims/wedding-29.1a.mp4,stims/wedding-29.1b.mp4,stims/wedding-29.2b.mp4,stims/wedding-29.3b.mp4,stims/wedding-29.4b.mp4,stims/wedding-29.5.mp4,stimsday2details/newpainting16.png,stimsday2details/painting29.png,stimsday2details/newperson30.png,stimsday2details/couple29.png,stimsday2details/new30.png,stimsday2details/gift29.png,stimsday2details/cn29.png,stimsday2details/n29.png,stimsday2details/t29.png,stimsday2details/ct29.png,0,5,5,5,,,,,,,,,0,0,0,0,,,,,,,,,,,,,,,,,,,,,2.907793809659779,None,765.0268100714311,790.0920542245731,790.108638709411,None,799.1092826565728,None,816.1082894904539,839.1254631783813,839.1254631783813,None,863.1077415738255,None,,,,,,,,,,,,,,,,,,,,,,,,,,,,,,,,,,,,,,,,,,,,,,,,,,,,,,,,,,,,,,,,,,,,,,,,,,,,,001,39,2020_Jan_17_1344,viewing,3.1.2,None,
north.png,stims/wedding-29.1a.mp4,stims/wedding-29.1b.mp4,stims/wedding-29.2b.mp4,stims/wedding-29.3b.mp4,stims/wedding-29.4b.mp4,stims/wedding-29.5.mp4,stimsday2details/newpainting16.png,stimsday2details/painting29.png,stimsday2details/newperson30.png,stimsday2details/couple29.png,stimsday2details/new30.png,stimsday2details/gift29.png,stimsday2details/cn29.png,stimsday2details/n29.png,stimsday2details/t29.png,stimsday2details/ct29.png,0,5,5,5,,,,,,,,,,,,,0,0,0,0,,,,,,,,,,,,,,,,,,,,,,,,,,,,,,,None,None,None,None,None,None,None,None,None,None,None,None,None,None,None,None,None,None,None,,None,None,None,,None,None,,,,,,,,,,,,,,,,,,,,,,,,,,,,,,,,,,,,,,,,,,,,,,,,,,,001,39,2020_Jan_17_1344,viewing,3.1.2,None,
north.png,stims/wedding-29.1a.mp4,stims/wedding-29.1b.mp4,stims/wedding-29.2b.mp4,stims/wedding-29.3b.mp4,stims/wedding-29.4b.mp4,stims/wedding-29.5.mp4,stimsday2details/newpainting16.png,stimsday2details/painting29.png,stimsday2details/newperson30.png,stimsday2details/couple29.png,stimsday2details/new30.png,stimsday2details/gift29.png,stimsday2details/cn29.png,stimsday2details/n29.png,stimsday2details/t29.png,stimsday2details/ct29.png,0,5,5,5,,,,,,,,,,,,,,,,,,,,,,,,,,,,,,,,,,,,,,,,,,,,,,,,,,,,,,,,,,,,,,,,,,,,,,,,,0.00020198989659547806,None,2,0.8369017168879509,886.5739851482213,None,886.5739851482213,None,886.5739851482213,None,888.5743297664449,None,2,0.602170062251389,888.5743297664449,None,888.5743297664449,None,890.5743139982224,None,890.5743139982224,None,2,0.7236438822001219,890.5743139982224,None,1,1.569703159853816,892.5742290476337,None,892.5742290476337,None,892.5742290476337,None,894.5743719227612,None,894.5743719227612,None,2,0.8187235165387392,894.5743719227612,None,896.5751130227,None,896.5751130227,None,2,0.6845612609758973,896.5751130227,None,001,39,2020_Jan_17_1344,viewing,3.1.2,None,
north.png,stims/wedding-19.1a.mp4,stims/wedding-19.1b.mp4,stims/wedding-19.2b.mp4,stims/wedding-19.3b.mp4,stims/wedding-19.4b.mp4,stims/wedding-19.5.mp4,stimsday2details/painting19.png,stimsday2details/newpainting17.png,stimsday2details/newperson31.png,stimsday2details/couple19.png,stimsday2details/gift19.png,stimsday2details/new31.png,stimsday2details/cn19.png,stimsday2details/n19.png,stimsday2details/ct19.png,stimsday2details/t19.png,0,6,6,6,0,0,0,0,,,,,,,,,,,,,,,,,,,,,,,,,None,None,,,,,,,,,,,,,,,,,,,,,,,,,,,,,,,,,,,,,,,,,,,,,,,,,,,,,,,,,,,,,,,,,,,,,,,,,,,,,,,,,,,,,,,,,,,,,001,39,2020_Jan_17_1344,viewing,3.1.2,None,
north.png,stims/wedding-19.1a.mp4,stims/wedding-19.1b.mp4,stims/wedding-19.2b.mp4,stims/wedding-19.3b.mp4,stims/wedding-19.4b.mp4,stims/wedding-19.5.mp4,stimsday2details/painting19.png,stimsday2details/newpainting17.png,stimsday2details/newperson31.png,stimsday2details/couple19.png,stimsday2details/gift19.png,stimsday2details/new31.png,stimsday2details/cn19.png,stimsday2details/n19.png,stimsday2details/ct19.png,stimsday2details/t19.png,0,6,6,6,,,,,0,0,0,0,,,,,,,,,,,,,,,,,,,,,,,898.7254403429106,None,,,,,,,,,,,,,,,,,,,,,,,,,,,,,,,,,,,,,,,,,,,,,,,,,,,,,,,,,,,,,,,,,,,,,,,,,,,,,,,,,,,,,,,,,,,001,39,2020_Jan_17_1344,viewing,3.1.2,None,
north.png,stims/wedding-19.1a.mp4,stims/wedding-19.1b.mp4,stims/wedding-19.2b.mp4,stims/wedding-19.3b.mp4,stims/wedding-19.4b.mp4,stims/wedding-19.5.mp4,stimsday2details/painting19.png,stimsday2details/newpainting17.png,stimsday2details/newperson31.png,stimsday2details/couple19.png,stimsday2details/gift19.png,stimsday2details/new31.png,stimsday2details/cn19.png,stimsday2details/n19.png,stimsday2details/ct19.png,stimsday2details/t19.png,0,6,6,6,,,,,,,,,0,0,0,0,,,,,,,,,,,,,,,,,,,,,3.096406445838511,None,909.0083069866523,933.8904662765563,933.9078864520416,None,942.9082300681621,959.8898353809491,959.907583299093,982.9063585819677,982.9239842677489,None,1006.9066561972722,None,,,,,,,,,,,,,,,,,,,,,,,,,,,,,,,,,,,,,,,,,,,,,,,,,,,,,,,,,,,,,,,,,,,,,,,,,,,,,001,39,2020_Jan_17_1344,viewing,3.1.2,None,
north.png,stims/wedding-19.1a.mp4,stims/wedding-19.1b.mp4,stims/wedding-19.2b.mp4,stims/wedding-19.3b.mp4,stims/wedding-19.4b.mp4,stims/wedding-19.5.mp4,stimsday2details/painting19.png,stimsday2details/newpainting17.png,stimsday2details/newperson31.png,stimsday2details/couple19.png,stimsday2details/gift19.png,stimsday2details/new31.png,stimsday2details/cn19.png,stimsday2details/n19.png,stimsday2details/ct19.png,stimsday2details/t19.png,0,6,6,6,,,,,,,,,,,,,0,0,0,0,,,,,,,,,,,,,,,,,,,,,,,,,,,,,,,None,None,None,None,None,None,None,None,None,None,None,None,None,None,None,None,None,None,None,,None,None,None,,None,None,,,,,,,,,,,,,,,,,,,,,,,,,,,,,,,,,,,,,,,,,,,,,,,,,,,001,39,2020_Jan_17_1344,viewing,3.1.2,None,
north.png,stims/wedding-19.1a.mp4,stims/wedding-19.1b.mp4,stims/wedding-19.2b.mp4,stims/wedding-19.3b.mp4,stims/wedding-19.4b.mp4,stims/wedding-19.5.mp4,stimsday2details/painting19.png,stimsday2details/newpainting17.png,stimsday2details/newperson31.png,stimsday2details/couple19.png,stimsday2details/gift19.png,stimsday2details/new31.png,stimsday2details/cn19.png,stimsday2details/n19.png,stimsday2details/ct19.png,stimsday2details/t19.png,0,6,6,6,,,,,,,,,,,,,,,,,,,,,,,,,,,,,,,,,,,,,,,,,,,,,,,,,,,,,,,,,,,,,,,,,,,,,,,,,3.455113619565964e-05,None,None,,1031.250936808996,None,1031.250936808996,None,1031.250936808996,None,1033.2394879581407,None,1,0.8523493716493249,1033.2394879581407,None,1033.2394879581407,None,1035.2400462310761,None,1035.2400462310761,None,2,0.7189402263611555,1035.2400462310761,None,2,1.0142735186964273,1037.2435101009905,None,1037.2435101009905,None,1037.2435101009905,None,1039.239949528128,None,1039.239949528128,None,1,0.7684255987405777,1039.239949528128,None,1041.2437400761992,None,1041.2437400761992,None,1,1.1642969539389014,1041.2437400761992,None,001,39,2020_Jan_17_1344,viewing,3.1.2,None,
south.png,stims/wedding-23.1a.mp4,stims/wedding-23.1b.mp4,stims/wedding-23.2a.mp4,stims/wedding-23.3b.mp4,stims/wedding-23.4a.mp4,stims/wedding-23.5.mp4,stimsday2details/egg23.png,stimsday2details/newegg15.png,stimsday2details/newperson32.png,stimsday2details/couple23.png,stimsday2details/new32.png,stimsday2details/gift23.png,stimsday2details/cn23.png,stimsday2details/n23.png,stimsday2details/t23.png,stimsday2details/ct23.png,0,7,7,7,0,0,0,0,,,,,,,,,,,,,,,,,,,,,,,,,1043.2385411532596,None,,,,,,,,,,,,,,,,,,,,,,,,,,,,,,,,,,,,,,,,,,,,,,,,,,,,,,,,,,,,,,,,,,,,,,,,,,,,,,,,,,,,,,,,,,,,,001,39,2020_Jan_17_1344,viewing,3.1.2,None,
south.png,stims/wedding-23.1a.mp4,stims/wedding-23.1b.mp4,stims/wedding-23.2a.mp4,stims/wedding-23.3b.mp4,stims/wedding-23.4a.mp4,stims/wedding-23.5.mp4,stimsday2details/egg23.png,stimsday2details/newegg15.png,stimsday2details/newperson32.png,stimsday2details/couple23.png,stimsday2details/new32.png,stimsday2details/gift23.png,stimsday2details/cn23.png,stimsday2details/n23.png,stimsday2details/t23.png,stimsday2details/ct23.png,0,7,7,7,,,,,0,0,0,0,,,,,,,,,,,,,,,,,,,,,,,None,None,,,,,,,,,,,,,,,,,,,,,,,,,,,,,,,,,,,,,,,,,,,,,,,,,,,,,,,,,,,,,,,,,,,,,,,,,,,,,,,,,,,,,,,,,,,001,39,2020_Jan_17_1344,viewing,3.1.2,None,
south.png,stims/wedding-23.1a.mp4,stims/wedding-23.1b.mp4,stims/wedding-23.2a.mp4,stims/wedding-23.3b.mp4,stims/wedding-23.4a.mp4,stims/wedding-23.5.mp4,stimsday2details/egg23.png,stimsday2details/newegg15.png,stimsday2details/newperson32.png,stimsday2details/couple23.png,stimsday2details/new32.png,stimsday2details/gift23.png,stimsday2details/cn23.png,stimsday2details/n23.png,stimsday2details/t23.png,stimsday2details/ct23.png,0,7,7,7,,,,,,,,,0,0,0,0,,,,,,,,,,,,,,,,,,,,,3.072203350253403,None,1053.6885237889364,1078.605039684102,1078.6217290498316,None,1087.6226039407775,1104.6056927628815,1104.6211429378018,1127.6044947868213,1127.6213300945237,1151.6041563488543,1151.620817637071,None,,,,,,,,,,,,,,,,,,,,,,,,,,,,,,,,,,,,,,,,,,,,,,,,,,,,,,,,,,,,,,,,,,,,,,,,,,,,,001,39,2020_Jan_17_1344,viewing,3.1.2,None,
south.png,stims/wedding-23.1a.mp4,stims/wedding-23.1b.mp4,stims/wedding-23.2a.mp4,stims/wedding-23.3b.mp4,stims/wedding-23.4a.mp4,stims/wedding-23.5.mp4,stimsday2details/egg23.png,stimsday2details/newegg15.png,stimsday2details/newperson32.png,stimsday2details/couple23.png,stimsday2details/new32.png,stimsday2details/gift23.png,stimsday2details/cn23.png,stimsday2details/n23.png,stimsday2details/t23.png,stimsday2details/ct23.png,0,7,7,7,,,,,,,,,,,,,0,0,0,0,,,,,,,,,,,,,,,,,,,,,,,,,,,,,,,None,None,None,None,None,None,None,None,None,None,None,None,None,None,None,None,None,None,None,,None,None,None,,None,None,,,,,,,,,,,,,,,,,,,,,,,,,,,,,,,,,,,,,,,,,,,,,,,,,,,001,39,2020_Jan_17_1344,viewing,3.1.2,None,
south.png,stims/wedding-23.1a.mp4,stims/wedding-23.1b.mp4,stims/wedding-23.2a.mp4,stims/wedding-23.3b.mp4,stims/wedding-23.4a.mp4,stims/wedding-23.5.mp4,stimsday2details/egg23.png,stimsday2details/newegg15.png,stimsday2details/newperson32.png,stimsday2details/couple23.png,stimsday2details/new32.png,stimsday2details/gift23.png,stimsday2details/cn23.png,stimsday2details/n23.png,stimsday2details/t23.png,stimsday2details/ct23.png,0,7,7,7,,,,,,,,,,,,,,,,,,,,,,,,,,,,,,,,,,,,,,,,,,,,,,,,,,,,,,,,,,,,,,,,,,,,,,,,,4.2343512177467346e-05,None,2,0.5952763063833117,1176.111671904102,None,1176.111671904102,None,1176.111671904102,None,1178.1047656089067,None,1,0.8183454880490899,1178.1047656089067,None,1178.1047656089067,None,1180.1041027577594,None,1180.1041027577594,None,2,0.6347412401810288,1180.1041027577594,None,1,0.9852769048884511,1182.1046878201887,None,1182.1046878201887,None,1182.1046878201887,None,1184.1081255516037,None,1184.1081255516037,None,2,0.7370816403999925,1184.1081255516037,None,1186.1034957794473,None,1186.1034957794473,None,2,0.91932831145823,1186.1034957794473,None,001,39,2020_Jan_17_1344,viewing,3.1.2,None,
south.png,stims/wedding-38.1a.mp4,stims/wedding-38.1b.mp4,stims/wedding-38.2a.mp4,stims/wedding-38.3b.mp4,stims/wedding-38.4a.mp4,stims/wedding-38.5.mp4,stimsday2details/egg38.png,stimsday2details/newegg16.png,stimsday2details/couple38.png,stimsday2details/newperson33.png,stimsday2details/gift38.png,stimsday2details/new33.png,stimsday2details/cn38.png,stimsday2details/n38.png,stimsday2details/ct38.png,stimsday2details/t38.png,0,8,8,8,0,0,0,0,,,,,,,,,,,,,,,,,,,,,,,,,1188.109604952857,None,,,,,,,,,,,,,,,,,,,,,,,,,,,,,,,,,,,,,,,,,,,,,,,,,,,,,,,,,,,,,,,,,,,,,,,,,,,,,,,,,,,,,,,,,,,,,001,39,2020_Jan_17_1344,viewing,3.1.2,None,
south.png,stims/wedding-38.1a.mp4,stims/wedding-38.1b.mp4,stims/wedding-38.2a.mp4,stims/wedding-38.3b.mp4,stims/wedding-38.4a.mp4,stims/wedding-38.5.mp4,stimsday2details/egg38.png,stimsday2details/newegg16.png,stimsday2details/couple38.png,stimsday2details/newperson33.png,stimsday2details/gift38.png,stimsday2details/new33.png,stimsday2details/cn38.png,stimsday2details/n38.png,stimsday2details/ct38.png,stimsday2details/t38.png,0,8,8,8,,,,,0,0,0,0,,,,,,,,,,,,,,,,,,,,,,,None,None,,,,,,,,,,,,,,,,,,,,,,,,,,,,,,,,,,,,,,,,,,,,,,,,,,,,,,,,,,,,,,,,,,,,,,,,,,,,,,,,,,,,,,,,,,,001,39,2020_Jan_17_1344,viewing,3.1.2,None,
south.png,stims/wedding-38.1a.mp4,stims/wedding-38.1b.mp4,stims/wedding-38.2a.mp4,stims/wedding-38.3b.mp4,stims/wedding-38.4a.mp4,stims/wedding-38.5.mp4,stimsday2details/egg38.png,stimsday2details/newegg16.png,stimsday2details/couple38.png,stimsday2details/newperson33.png,stimsday2details/gift38.png,stimsday2details/new33.png,stimsday2details/cn38.png,stimsday2details/n38.png,stimsday2details/ct38.png,stimsday2details/t38.png,0,8,8,8,,,,,,,,,0,0,0,0,,,,,,,,,,,,,,,,,,,,,3.0525372242555022,None,1198.5865385727957,1223.5036904215813,1223.5199564974755,None,1232.5197596680373,1249.5028029102832,1249.5191152337939,1272.5025840420276,1272.5195045676082,None,1296.519093950279,None,,,,,,,,,,,,,,,,,,,,,,,,,,,,,,,,,,,,,,,,,,,,,,,,,,,,,,,,,,,,,,,,,,,,,,,,,,,,,001,39,2020_Jan_17_1344,viewing,3.1.2,None,
south.png,stims/wedding-38.1a.mp4,stims/wedding-38.1b.mp4,stims/wedding-38.2a.mp4,stims/wedding-38.3b.mp4,stims/wedding-38.4a.mp4,stims/wedding-38.5.mp4,stimsday2details/egg38.png,stimsday2details/newegg16.png,stimsday2details/couple38.png,stimsday2details/newperson33.png,stimsday2details/gift38.png,stimsday2details/new33.png,stimsday2details/cn38.png,stimsday2details/n38.png,stimsday2details/ct38.png,stimsday2details/t38.png,0,8,8,8,,,,,,,,,,,,,0,0,0,0,,,,,,,,,,,,,,,,,,,,,,,,,,,,,,,None,None,None,None,None,None,None,None,None,None,None,None,None,None,None,None,None,None,None,,None,None,None,,None,None,,,,,,,,,,,,,,,,,,,,,,,,,,,,,,,,,,,,,,,,,,,,,,,,,,,001,39,2020_Jan_17_1344,viewing,3.1.2,None,
south.png,stims/wedding-38.1a.mp4,stims/wedding-38.1b.mp4,stims/wedding-38.2a.mp4,stims/wedding-38.3b.mp4,stims/wedding-38.4a.mp4,stims/wedding-38.5.mp4,stimsday2details/egg38.png,stimsday2details/newegg16.png,stimsday2details/couple38.png,stimsday2details/newperson33.png,stimsday2details/gift38.png,stimsday2details/new33.png,stimsday2details/cn38.png,stimsday2details/n38.png,stimsday2details/ct38.png,stimsday2details/t38.png,0,8,8,8,,,,,,,,,,,,,,,,,,,,,,,,,,,,,,,,,,,,,,,,,,,,,,,,,,,,,,,,,,,,,,,,,,,,,,,,,3.64985316991806e-05,None,2,0.8515230054035783,1320.757682863623,None,1320.757682863623,None,1320.757682863623,None,1322.7523458478972,None,1,0.6894051609560847,1322.7523458478972,None,1322.7523458478972,None,1324.7566139334813,None,1324.7566139334813,None,1,0.9820930454879999,1324.7566139334813,None,2,1.1233715796843171,1326.741036570631,None,1326.741036570631,None,1326.741036570631,None,1328.7409397745505,None,1328.7409397745505,None,1,0.7859264183789492,1328.7409397745505,None,1330.7409174479544,None,1330.7409174479544,None,2,1.551659901626408,1330.7409174479544,None,001,39,2020_Jan_17_1344,viewing,3.1.2,None,
north.png,stims/wedding-6.1a.mp4,stims/wedding-6.1b.mp4,stims/wedding-6.2a.mp4,stims/wedding-6.3a.mp4,stims/wedding-6.4a.mp4,stims/wedding-6.5.mp4,stimsday2details/egg6.png,stimsday2details/newegg17.png,stimsday2details/couple6.png,stimsday2details/newperson34.png,stimsday2details/new34.png,stimsday2details/gift6.png,stimsday2details/n6.png,stimsday2details/cn6.png,stimsday2details/ct6.png,stimsday2details/t6.png,0,9,9,9,0,0,0,0,,,,,,,,,,,,,,,,,,,,,,,,,None,None,,,,,,,,,,,,,,,,,,,,,,,,,,,,,,,,,,,,,,,,,,,,,,,,,,,,,,,,,,,,,,,,,,,,,,,,,,,,,,,,,,,,,,,,,,,,,001,39,2020_Jan_17_1344,viewing,3.1.2,None,
north.png,stims/wedding-6.1a.mp4,stims/wedding-6.1b.mp4,stims/wedding-6.2a.mp4,stims/wedding-6.3a.mp4,stims/wedding-6.4a.mp4,stims/wedding-6.5.mp4,stimsday2details/egg6.png,stimsday2details/newegg17.png,stimsday2details/couple6.png,stimsday2details/newperson34.png,stimsday2details/new34.png,stimsday2details/gift6.png,stimsday2details/n6.png,stimsday2details/cn6.png,stimsday2details/ct6.png,stimsday2details/t6.png,0,9,9,9,,,,,0,0,0,0,,,,,,,,,,,,,,,,,,,,,,,1332.952287323773,None,,,,,,,,,,,,,,,,,,,,,,,,,,,,,,,,,,,,,,,,,,,,,,,,,,,,,,,,,,,,,,,,,,,,,,,,,,,,,,,,,,,,,,,,,,,001,39,2020_Jan_17_1344,viewing,3.1.2,None,
north.png,stims/wedding-6.1a.mp4,stims/wedding-6.1b.mp4,stims/wedding-6.2a.mp4,stims/wedding-6.3a.mp4,stims/wedding-6.4a.mp4,stims/wedding-6.5.mp4,stimsday2details/egg6.png,stimsday2details/newegg17.png,stimsday2details/couple6.png,stimsday2details/newperson34.png,stimsday2details/new34.png,stimsday2details/gift6.png,stimsday2details/n6.png,stimsday2details/cn6.png,stimsday2details/ct6.png,stimsday2details/t6.png,0,9,9,9,,,,,,,,,0,0,0,0,,,,,,,,,,,,,,,,,,,,,3.046416294761002,None,1343.2524796910584,1368.1850129989907,1368.1850129989907,None,1377.1900696111843,1394.1846424806863,1394.2020504884422,1417.1841185549274,1417.2014273172244,1441.1844933135435,1441.2012326559052,None,,,,,,,,,,,,,,,,,,,,,,,,,,,,,,,,,,,,,,,,,,,,,,,,,,,,,,,,,,,,,,,,,,,,,,,,,,,,,001,39,2020_Jan_17_1344,viewing,3.1.2,None,
north.png,stims/wedding-6.1a.mp4,stims/wedding-6.1b.mp4,stims/wedding-6.2a.mp4,stims/wedding-6.3a.mp4,stims/wedding-6.4a.mp4,stims/wedding-6.5.mp4,stimsday2details/egg6.png,stimsday2details/newegg17.png,stimsday2details/couple6.png,stimsday2details/newperson34.png,stimsday2details/new34.png,stimsday2details/gift6.png,stimsday2details/n6.png,stimsday2details/cn6.png,stimsday2details/ct6.png,stimsday2details/t6.png,0,9,9,9,,,,,,,,,,,,,0,0,0,0,,,,,,,,,,,,,,,,,,,,,,,,,,,,,,,None,None,None,None,None,None,None,None,None,None,None,None,None,None,None,None,None,None,None,,None,None,None,,None,None,,,,,,,,,,,,,,,,,,,,,,,,,,,,,,,,,,,,,,,,,,,,,,,,,,,001,39,2020_Jan_17_1344,viewing,3.1.2,None,
north.png,stims/wedding-6.1a.mp4,stims/wedding-6.1b.mp4,stims/wedding-6.2a.mp4,stims/wedding-6.3a.mp4,stims/wedding-6.4a.mp4,stims/wedding-6.5.mp4,stimsday2details/egg6.png,stimsday2details/newegg17.png,stimsday2details/couple6.png,stimsday2details/newperson34.png,stimsday2details/new34.png,stimsday2details/gift6.png,stimsday2details/n6.png,stimsday2details/cn6.png,stimsday2details/ct6.png,stimsday2details/t6.png,0,9,9,9,,,,,,,,,,,,,,,,,,,,,,,,,,,,,,,,,,,,,,,,,,,,,,,,,,,,,,,,,,,,,,,,,,,,,,,,,4.267599433660507e-05,None,1,0.8809575904160738,1465.3715276699513,None,1465.3715276699513,None,1465.3715276699513,None,1467.3663537092507,None,1,0.6527973217889667,1467.3663537092507,None,1467.3663537092507,None,1469.367274264805,None,1469.367274264805,None,1,1.0860300064086914,1469.367274264805,None,2,1.2363538555800915,1471.3669159766287,None,1471.3669159766287,None,1471.3669159766287,None,1473.3673522947356,None,1473.3673522947356,None,2,0.673429174348712,1473.3673522947356,None,1475.37204913795,None,1475.37204913795,None,2,0.730029996484518,1475.37204913795,None,001,39,2020_Jan_17_1344,viewing,3.1.2,None,
north.png,stims/wedding-17.1a.mp4,stims/wedding-17.1b.mp4,stims/wedding-17.2a.mp4,stims/wedding-17.3a.mp4,stims/wedding-17.4a.mp4,stims/wedding-17.5.mp4,stimsday2details/newegg18.png,stimsday2details/egg17.png,stimsday2details/newperson35.png,stimsday2details/couple17.png,stimsday2details/new35.png,stimsday2details/gift17.png,stimsday2details/cn17.png,stimsday2details/n17.png,stimsday2details/t17.png,stimsday2details/ct17.png,0,10,10,10,0,0,0,0,,,,,,,,,,,,,,,,,,,,,,,,,None,None,,,,,,,,,,,,,,,,,,,,,,,,,,,,,,,,,,,,,,,,,,,,,,,,,,,,,,,,,,,,,,,,,,,,,,,,,,,,,,,,,,,,,,,,,,,,,001,39,2020_Jan_17_1344,viewing,3.1.2,None,
north.png,stims/wedding-17.1a.mp4,stims/wedding-17.1b.mp4,stims/wedding-17.2a.mp4,stims/wedding-17.3a.mp4,stims/wedding-17.4a.mp4,stims/wedding-17.5.mp4,stimsday2details/newegg18.png,stimsday2details/egg17.png,stimsday2details/newperson35.png,stimsday2details/couple17.png,stimsday2details/new35.png,stimsday2details/gift17.png,stimsday2details/cn17.png,stimsday2details/n17.png,stimsday2details/t17.png,stimsday2details/ct17.png,0,10,10,10,,,,,0,0,0,0,,,,,,,,,,,,,,,,,,,,,,,1477.6171280257404,None,,,,,,,,,,,,,,,,,,,,,,,,,,,,,,,,,,,,,,,,,,,,,,,,,,,,,,,,,,,,,,,,,,,,,,,,,,,,,,,,,,,,,,,,,,,001,39,2020_Jan_17_1344,viewing,3.1.2,None,
north.png,stims/wedding-17.1a.mp4,stims/wedding-17.1b.mp4,stims/wedding-17.2a.mp4,stims/wedding-17.3a.mp4,stims/wedding-17.4a.mp4,stims/wedding-17.5.mp4,stimsday2details/newegg18.png,stimsday2details/egg17.png,stimsday2details/newperson35.png,stimsday2details/couple17.png,stimsday2details/new35.png,stimsday2details/gift17.png,stimsday2details/cn17.png,stimsday2details/n17.png,stimsday2details/t17.png,stimsday2details/ct17.png,0,10,10,10,,,,,,,,,0,0,0,0,,,,,,,,,,,,,,,,,,,,,2.984515806660056,None,1487.9668700480834,None,1512.9674346912652,None,1521.983048390597,1538.9667314458638,1538.9833651250228,None,1561.9825285999104,None,1585.982132888399,None,,,,,,,,,,,,,,,,,,,,,,,,,,,,,,,,,,,,,,,,,,,,,,,,,,,,,,,,,,,,,,,,,,,,,,,,,,,,,001,39,2020_Jan_17_1344,viewing,3.1.2,None,
north.png,stims/wedding-17.1a.mp4,stims/wedding-17.1b.mp4,stims/wedding-17.2a.mp4,stims/wedding-17.3a.mp4,stims/wedding-17.4a.mp4,stims/wedding-17.5.mp4,stimsday2details/newegg18.png,stimsday2details/egg17.png,stimsday2details/newperson35.png,stimsday2details/couple17.png,stimsday2details/new35.png,stimsday2details/gift17.png,stimsday2details/cn17.png,stimsday2details/n17.png,stimsday2details/t17.png,stimsday2details/ct17.png,0,10,10,10,,,,,,,,,,,,,0,0,0,0,,,,,,,,,,,,,,,,,,,,,,,,,,,,,,,None,None,None,None,None,None,None,None,None,None,None,None,None,None,None,None,None,None,None,,None,None,None,,None,None,,,,,,,,,,,,,,,,,,,,,,,,,,,,,,,,,,,,,,,,,,,,,,,,,,,001,39,2020_Jan_17_1344,viewing,3.1.2,None,
north.png,stims/wedding-17.1a.mp4,stims/wedding-17.1b.mp4,stims/wedding-17.2a.mp4,stims/wedding-17.3a.mp4,stims/wedding-17.4a.mp4,stims/wedding-17.5.mp4,stimsday2details/newegg18.png,stimsday2details/egg17.png,stimsday2details/newperson35.png,stimsday2details/couple17.png,stimsday2details/new35.png,stimsday2details/gift17.png,stimsday2details/cn17.png,stimsday2details/n17.png,stimsday2details/t17.png,stimsday2details/ct17.png,0,10,10,10,,,,,,,,,,,,,,,,,,,,,,,,,,,,,,,,,,,,,,,,,,,,,,,,,,,,,,,,,,,,,,,,,,,,,,,,,3.538094460964203e-05,None,2,0.7282299725338817,1610.0066208206117,None,1610.0066208206117,None,1610.0066208206117,None,1611.998766919598,None,2,0.6348321679979563,1611.998766919598,None,1611.998766919598,None,1613.998428646475,None,1613.998428646475,None,2,0.9028129260987043,1613.998428646475,None,1,1.0399844702333212,1615.9984245086089,None,1615.9984245086089,None,1615.9984245086089,None,1617.9993698447943,None,1617.9993698447943,None,2,0.8175004571676254,1617.9993698447943,None,1619.9991470528767,None,1619.9991470528767,None,2,1.2194195920601487,1619.9991470528767,None,001,39,2020_Jan_17_1344,viewing,3.1.2,None,
south.png,stims/wedding-2.1a.mp4,stims/wedding-2.1b.mp4,stims/wedding-2.2b.mp4,stims/wedding-2.3a.mp4,stims/wedding-2.4b.mp4,stims/wedding-2.5.mp4,stimsday2details/painting2.png,stimsday2details/newpainting18.png,stimsday2details/couple2.png,stimsday2details/newperson36.png,stimsday2details/new36.png,stimsday2details/gift2.png,stimsday2details/n2.png,stimsday2details/cn2.png,stimsday2details/ct2.png,stimsday2details/t2.png,0,11,11,11,0,0,0,0,,,,,,,,,,,,,,,,,,,,,,,,,1621.9991695657372,None,,,,,,,,,,,,,,,,,,,,,,,,,,,,,,,,,,,,,,,,,,,,,,,,,,,,,,,,,,,,,,,,,,,,,,,,,,,,,,,,,,,,,,,,,,,,,001,39,2020_Jan_17_1344,viewing,3.1.2,None,
south.png,stims/wedding-2.1a.mp4,stims/wedding-2.1b.mp4,stims/wedding-2.2b.mp4,stims/wedding-2.3a.mp4,stims/wedding-2.4b.mp4,stims/wedding-2.5.mp4,stimsday2details/painting2.png,stimsday2details/newpainting18.png,stimsday2details/couple2.png,stimsday2details/newperson36.png,stimsday2details/new36.png,stimsday2details/gift2.png,stimsday2details/n2.png,stimsday2details/cn2.png,stimsday2details/ct2.png,stimsday2details/t2.png,0,11,11,11,,,,,0,0,0,0,,,,,,,,,,,,,,,,,,,,,,,None,None,,,,,,,,,,,,,,,,,,,,,,,,,,,,,,,,,,,,,,,,,,,,,,,,,,,,,,,,,,,,,,,,,,,,,,,,,,,,,,,,,,,,,,,,,,,001,39,2020_Jan_17_1344,viewing,3.1.2,None,
south.png,stims/wedding-2.1a.mp4,stims/wedding-2.1b.mp4,stims/wedding-2.2b.mp4,stims/wedding-2.3a.mp4,stims/wedding-2.4b.mp4,stims/wedding-2.5.mp4,stimsday2details/painting2.png,stimsday2details/newpainting18.png,stimsday2details/couple2.png,stimsday2details/newperson36.png,stimsday2details/new36.png,stimsday2details/gift2.png,stimsday2details/n2.png,stimsday2details/cn2.png,stimsday2details/ct2.png,stimsday2details/t2.png,0,11,11,11,,,,,,,,,0,0,0,0,,,,,,,,,,,,,,,,,,,,,None,None,None,None,None,None,None,None,None,None,None,None,None,None,,,,,,,,,,,,,,,,,,,,,,,,,,,,,,,,,,,,,,,,,,,,,,,,,,,,,,,,,,,,,,,,,,,,,,,,,,,,,001,39,2020_Jan_17_1344,viewing,3.1.2,None,
south.png,stims/wedding-2.1a.mp4,stims/wedding-2.1b.mp4,stims/wedding-2.2b.mp4,stims/wedding-2.3a.mp4,stims/wedding-2.4b.mp4,stims/wedding-2.5.mp4,stimsday2details/painting2.png,stimsday2details/newpainting18.png,stimsday2details/couple2.png,stimsday2details/newperson36.png,stimsday2details/new36.png,stimsday2details/gift2.png,stimsday2details/n2.png,stimsday2details/cn2.png,stimsday2details/ct2.png,stimsday2details/t2.png,0,11,11,11,,,,,,,,,,,,,0,0,0,0,,,,,,,,,,,,,,,,,,,,,,,,,,,,,,,2.8700170181691647,None,1635.6158766672015,None,1660.7485819580033,None,1669.74873016309,None,1686.7473225211725,1690.7356270812452,1690.7484370749444,1713.7305478127673,1713.7470358330756,1717.73049605079,1717.7472184039652,1741.7305428218096,1741.7473685778677,None,['2'],[1.968139854259789],1685.7483798768371,1690.7356270812452,"['1', '2']","[82.26483708061278, 2.219187969341874]",1712.7471336172894,1717.73049605079,,,,,,,,,,,,,,,,,,,,,,,,,,,,,,,,,,,,,,,,,,,,,,,,,,,001,39,2020_Jan_17_1344,viewing,3.1.2,None,
south.png,stims/wedding-2.1a.mp4,stims/wedding-2.1b.mp4,stims/wedding-2.2b.mp4,stims/wedding-2.3a.mp4,stims/wedding-2.4b.mp4,stims/wedding-2.5.mp4,stimsday2details/painting2.png,stimsday2details/newpainting18.png,stimsday2details/couple2.png,stimsday2details/newperson36.png,stimsday2details/new36.png,stimsday2details/gift2.png,stimsday2details/n2.png,stimsday2details/cn2.png,stimsday2details/ct2.png,stimsday2details/t2.png,0,11,11,11,,,,,,,,,,,,,,,,,,,,,,,,,,,,,,,,,,,,,,,,,,,,,,,,,,,,,,,,,,,,,,,,,,,,,,,,,2.3972243070602417e-05,None,1,1.0019741617143154,1762.8462322112173,None,1762.8462322112173,None,1762.8462322112173,None,1764.8460852289572,None,1,0.5351773481816053,1764.8460852289572,None,1764.8460852289572,None,1766.8511920049787,None,1766.8511920049787,None,1,1.0020507834851742,1766.8511920049787,None,2,1.0347230760380626,1768.8518785545602,None,1768.8518785545602,None,1768.8518785545602,None,1770.856777393259,None,1770.856777393259,None,2,0.6805486138910055,1770.856777393259,None,1772.851678214036,None,1772.851678214036,None,2,1.2142193811014295,1772.851678214036,None,001,39,2020_Jan_17_1344,viewing,3.1.2,None,
