condsFile,northOrSouth,stimFile1a,stimFile1b,stimFile2,stimFile3,stimFile4,stimFile5,QeggPainting1,Qcharacter1,Qgift1,QeggPainting2,Qcharacter2,Qgift2,Qname1,Qtheme1,Qname2,Qtheme2,block.thisRepN,block.thisTrialN,block.thisN,block.thisIndex,trials.thisRepN,trials.thisTrialN,trials.thisN,trials.thisIndex,noQtrials.thisRepN,noQtrials.thisTrialN,noQtrials.thisN,noQtrials.thisIndex,Qtrials.thisRepN,Qtrials.thisTrialN,Qtrials.thisN,Qtrials.thisIndex,text.started,text.stopped,prep_trigger.keys,prep_trigger.rt,prep_trigger.started,prep_trigger.stopped,waiting.started,waiting.stopped,trigger.keys,trigger.rt,trigger.started,trigger.stopped,image_2.started,image_2.stopped,trialNoQs.started,trialNoQs.stopped,vid1a.started,vid1a.stopped,vid1b.started,vid1b.stopped,vid2.started,vid2.stopped,vid3.started,vid3.stopped,vid4.started,vid4.stopped,vid5.started,vid5.stopped,image.started,image.stopped,ISI2.started,ISI2.stopped,vid1a_q.started,vid1a_q.stopped,vid1b_q.started,vid1b_q.stopped,vid2_q.started,vid2_q.stopped,l2q.started,l2q.stopped,vid3_q.started,vid3_q.stopped,l3q.started,l3q.stopped,vid4_q.started,vid4_q.stopped,vid5_q.started,vid5_q.stopped,key_resp_2.keys,key_resp_2.rt,key_resp_2.started,key_resp_2.stopped,key_resp_3.keys,key_resp_3.rt,key_resp_3.started,key_resp_3.stopped,reveal.started,reveal.stopped,ISI7.started,ISI7.stopped,nameQresp.keys,nameQresp.rt,nameQresp.started,nameQresp.stopped,nameQ1.started,nameQ1.stopped,nameQ2.started,nameQ2.stopped,eggPainting1.started,eggPainting1.stopped,eggPaintingQresp.keys,eggPaintingQresp.rt,eggPaintingQresp.started,eggPaintingQresp.stopped,eggPainting2.started,eggPainting2.stopped,character1.started,character1.stopped,character2.started,character2.stopped,Qcharacter.keys,Qcharacter.rt,Qcharacter.started,Qcharacter.stopped,themeQresp.keys,themeQresp.rt,themeQresp.started,themeQresp.stopped,themeQ1.started,themeQ1.stopped,themeQ2.started,themeQ2.stopped,gift1.started,gift1.stopped,gift2.started,gift2.stopped,giftQresp.keys,giftQresp.rt,giftQresp.started,giftQresp.stopped,northorsouth1.started,northorsouth1.stopped,northOrSouthQ.keys,northOrSouthQ.rt,northOrSouthQ.started,northOrSouthQ.stopped,northorsouth2.started,northorsouth2.stopped,session,participant,date,expName,psychopyVersion,frameRate,
,,,,,,,,,,,,,,,,,,,,,,,,,,,,,,,,,,4.671906532719731,None,g,1.0375393806025386,4.671906532719731,None,,,,,,,,,,,,,,,,,,,,,,,,,,,,,,,,,,,,,,,,,,,,,,,,,,,,,,,,,,,,,,,,,,,,,,,,,,,,,,,,,,,,,,,,,,,,,,,,,,,,,,,001,35,2020_Jan_07_1416,Block4,3.1.2,59.945392248870846,
,,,,,,,,,,,,,,,,,,,,,,,,,,,,,,,,,,,,,,,,5.721943593584001,None,equal,19.33538401965052,5.721943593584001,None,,,,,,,,,,,,,,,,,,,,,,,,,,,,,,,,,,,,,,,,,,,,,,,,,,,,,,,,,,,,,,,,,,,,,,,,,,,,,,,,,,,,,,,,,,,,,,,,,001,35,2020_Jan_07_1416,Block4,3.1.2,59.945392248870846,
videoBlock_schemaS_pathB_6.csv,south.png,stims/wedding-37.1a.mp4,stims/wedding-37.1b.mp4,stims/wedding-37.2b.mp4,stims/wedding-37.3a.mp4,stims/wedding-37.4b.mp4,stims/wedding-37.5.mp4,stimsday1details/painting37.png,stimsday1details/couple37.png,stimsday1details/gift37.png,stimsday1details/newpainting12.png,stimsday1details/newperson24.png,stimsday1details/new24.png,stimsday1details/n37.png,stimsday1details/t37.png,stimsday1details/cn37.png,stimsday1details/ct37.png,0,0,0,5,0,0,0,0,0,0,0,0,,,,,,,,,,,,,,,,,25.08911515865475,None,None,None,None,None,None,None,None,None,None,None,None,None,None,None,None,None,,,,,,,,,,,,,,,,,,,,,,,,,,,,,,,,,,,,,,,,,,,,,,,,,,,,,,,,,,,,,,,,,,,,,,,,,,,,,,,001,35,2020_Jan_07_1416,Block4,3.1.2,59.945392248870846,
videoBlock_schemaS_pathB_6.csv,south.png,stims/wedding-37.1a.mp4,stims/wedding-37.1b.mp4,stims/wedding-37.2b.mp4,stims/wedding-37.3a.mp4,stims/wedding-37.4b.mp4,stims/wedding-37.5.mp4,stimsday1details/painting37.png,stimsday1details/couple37.png,stimsday1details/gift37.png,stimsday1details/newpainting12.png,stimsday1details/newperson24.png,stimsday1details/new24.png,stimsday1details/n37.png,stimsday1details/t37.png,stimsday1details/cn37.png,stimsday1details/ct37.png,0,0,0,5,0,0,0,0,,,,,0,0,0,0,,,,,,,,,,,,,,,,,,,,,,,,,,,,,,,2.584138092584908,None,36.988172356039286,None,59.887719575315714,None,68.88782285992056,None,85.88758552633226,89.88751950114965,89.88751950114965,None,112.8872697679326,116.88701904099435,116.88701904099435,None,140.88672583643347,None,['1'],[2.135920425876975],84.88742048572749,89.88751950114965,['2'],[2.48581856302917],111.8872794015333,116.88701904099435,36.988172356039286,36.988172356039286,,,,,,,,,,,,,,,,,,,,,,,,,,,,,,,,,,,,,,,,,,,,,,,,,,,001,35,2020_Jan_07_1416,Block4,3.1.2,59.945392248870846,
videoBlock_schemaS_pathB_6.csv,south.png,stims/wedding-37.1a.mp4,stims/wedding-37.1b.mp4,stims/wedding-37.2b.mp4,stims/wedding-37.3a.mp4,stims/wedding-37.4b.mp4,stims/wedding-37.5.mp4,stimsday1details/painting37.png,stimsday1details/couple37.png,stimsday1details/gift37.png,stimsday1details/newpainting12.png,stimsday1details/newperson24.png,stimsday1details/new24.png,stimsday1details/n37.png,stimsday1details/t37.png,stimsday1details/cn37.png,stimsday1details/ct37.png,0,0,0,5,0,0,0,0,,,,,,,,,,,,,,,,,,,,,,,,,,,,,,,,,,,,,,,,,,,,,,,,,,,,,,,,,,,,,,,,,,,3.281980752944946e-05,None,1,1.0688605029135942,155.45320631098002,None,155.45320631098002,None,155.45320631098002,None,157.45330090261996,None,1,0.6687966557219625,157.45330090261996,None,157.45330090261996,None,159.4531608177349,None,159.4531608177349,None,1,0.7684924062341452,159.4531608177349,None,1,0.9186988091096282,161.45328191295266,None,161.45328191295266,None,161.45328191295266,None,163.45304808579385,None,163.45304808579385,None,1,0.6688167694956064,163.45304808579385,None,165.4530119681731,None,2,0.7355290902778506,165.4530119681731,None,165.4530119681731,None,001,35,2020_Jan_07_1416,Block4,3.1.2,59.945392248870846,
videoBlock_schemaS_pathA_6.csv,south.png,stims/wedding-30.1a.mp4,stims/wedding-30.1b.mp4,stims/wedding-30.2a.mp4,stims/wedding-30.3b.mp4,stims/wedding-30.4a.mp4,stims/wedding-30.5.mp4,stimsday1details/newegg12.png,stimsday1details/couple30.png,stimsday1details/new12.png,stimsday1details/egg30.png,stimsday1details/newperson12.png,stimsday1details/gift30.png,stimsday1details/n30.png,stimsday1details/t30.png,stimsday1details/cn30.png,stimsday1details/ct30.png,0,1,1,2,0,0,0,0,0,0,0,0,,,,,,,,,,,,,,,,,167.63638775981963,None,3.0003654835745692,None,177.13756742328405,199.63597453571856,199.6526446333155,None,208.65272646024823,225.63586861733347,225.65252033341676,248.6355407787487,248.6522259907797,272.63505551218987,272.6517276465893,None,177.13756742328405,177.13756742328405,,,,,,,,,,,,,,,,,,,,,,,,,,,,,,,,,,,,,,,,,,,,,,,,,,,,,,,,,,,,,,,,,,,,,,,,,,,,,,,001,35,2020_Jan_07_1416,Block4,3.1.2,59.945392248870846,
videoBlock_schemaS_pathA_6.csv,south.png,stims/wedding-30.1a.mp4,stims/wedding-30.1b.mp4,stims/wedding-30.2a.mp4,stims/wedding-30.3b.mp4,stims/wedding-30.4a.mp4,stims/wedding-30.5.mp4,stimsday1details/newegg12.png,stimsday1details/couple30.png,stimsday1details/new12.png,stimsday1details/egg30.png,stimsday1details/newperson12.png,stimsday1details/gift30.png,stimsday1details/n30.png,stimsday1details/t30.png,stimsday1details/cn30.png,stimsday1details/ct30.png,0,1,1,2,0,0,0,0,,,,,0,0,0,0,,,,,,,,,,,,,,,,,,,,,,,,,,,,,,,None,None,None,None,None,None,None,None,None,None,None,None,None,None,None,None,None,None,None,,None,None,None,,None,None,None,None,,,,,,,,,,,,,,,,,,,,,,,,,,,,,,,,,,,,,,,,,,,,,,,,,,,001,35,2020_Jan_07_1416,Block4,3.1.2,59.945392248870846,
videoBlock_schemaS_pathA_6.csv,south.png,stims/wedding-30.1a.mp4,stims/wedding-30.1b.mp4,stims/wedding-30.2a.mp4,stims/wedding-30.3b.mp4,stims/wedding-30.4a.mp4,stims/wedding-30.5.mp4,stimsday1details/newegg12.png,stimsday1details/couple30.png,stimsday1details/new12.png,stimsday1details/egg30.png,stimsday1details/newperson12.png,stimsday1details/gift30.png,stimsday1details/n30.png,stimsday1details/t30.png,stimsday1details/cn30.png,stimsday1details/ct30.png,0,1,1,2,0,0,0,0,,,,,,,,,,,,,,,,,,,,,,,,,,,,,,,,,,,,,,,,,,,,,,,,,,,,,,,,,,,,,,,,,,,3.2209791243076324e-05,None,1,0.6331767849624157,290.13761403411627,None,290.13761403411627,None,290.13761403411627,None,292.11810216121376,None,2,0.852414290420711,292.11810216121376,None,292.11810216121376,None,294.1182728409767,None,294.1182728409767,None,1,0.801923849619925,294.1182728409767,None,1,0.9521238123998046,296.11802177876234,None,296.11802177876234,None,296.11802177876234,None,298.118120867759,None,298.118120867759,None,2,1.0857321051880717,298.118120867759,None,300.11818042676896,None,2,0.8856346597895026,300.11818042676896,None,300.11818042676896,None,001,35,2020_Jan_07_1416,Block4,3.1.2,59.945392248870846,
videoBlock_schemaS_pathB_4.csv,south.png,stims/wedding-35.1a.mp4,stims/wedding-35.1b.mp4,stims/wedding-35.2b.mp4,stims/wedding-35.3a.mp4,stims/wedding-35.4b.mp4,stims/wedding-35.5.mp4,stimsday1details/newpainting10.png,stimsday1details/newperson22.png,stimsday1details/gift35.png,stimsday1details/painting35.png,stimsday1details/couple35.png,stimsday1details/new22.png,stimsday1details/n35.png,stimsday1details/t35.png,stimsday1details/cn35.png,stimsday1details/ct35.png,0,2,2,3,0,0,0,0,0,0,0,0,,,,,,,,,,,,,,,,,302.3349104905501,None,2.760110355913639,None,311.5847787288949,334.33428949303925,334.35089343506843,None,343.351044180803,360.33421195391566,360.35080802161247,383.33366740029305,383.35051539633423,None,407.35021433606744,None,311.5847787288949,311.5847787288949,,,,,,,,,,,,,,,,,,,,,,,,,,,,,,,,,,,,,,,,,,,,,,,,,,,,,,,,,,,,,,,,,,,,,,,,,,,,,,,001,35,2020_Jan_07_1416,Block4,3.1.2,59.945392248870846,
videoBlock_schemaS_pathB_4.csv,south.png,stims/wedding-35.1a.mp4,stims/wedding-35.1b.mp4,stims/wedding-35.2b.mp4,stims/wedding-35.3a.mp4,stims/wedding-35.4b.mp4,stims/wedding-35.5.mp4,stimsday1details/newpainting10.png,stimsday1details/newperson22.png,stimsday1details/gift35.png,stimsday1details/painting35.png,stimsday1details/couple35.png,stimsday1details/new22.png,stimsday1details/n35.png,stimsday1details/t35.png,stimsday1details/cn35.png,stimsday1details/ct35.png,0,2,2,3,0,0,0,0,,,,,0,0,0,0,,,,,,,,,,,,,,,,,,,,,,,,,,,,,,,None,None,None,None,None,None,None,None,None,None,None,None,None,None,None,None,None,None,None,,None,None,None,,None,None,None,None,,,,,,,,,,,,,,,,,,,,,,,,,,,,,,,,,,,,,,,,,,,,,,,,,,,001,35,2020_Jan_07_1416,Block4,3.1.2,59.945392248870846,
videoBlock_schemaS_pathB_4.csv,south.png,stims/wedding-35.1a.mp4,stims/wedding-35.1b.mp4,stims/wedding-35.2b.mp4,stims/wedding-35.3a.mp4,stims/wedding-35.4b.mp4,stims/wedding-35.5.mp4,stimsday1details/newpainting10.png,stimsday1details/newperson22.png,stimsday1details/gift35.png,stimsday1details/painting35.png,stimsday1details/couple35.png,stimsday1details/new22.png,stimsday1details/n35.png,stimsday1details/t35.png,stimsday1details/cn35.png,stimsday1details/ct35.png,0,2,2,3,0,0,0,0,,,,,,,,,,,,,,,,,,,,,,,,,,,,,,,,,,,,,,,,,,,,,,,,,,,,,,,,,,,,,,,,,,,3.438442945480347e-05,None,1,0.5523686781525612,424.7165539525449,None,424.7165539525449,None,424.7165539525449,None,426.71665768977255,None,2,0.9189430698752403,426.71665768977255,None,426.71665768977255,None,428.71661799028516,None,428.71661799028516,None,2,1.052251505665481,428.71661799028516,None,1,0.8379354029893875,430.71641307510436,None,430.71641307510436,None,430.71641307510436,None,432.7165397023782,None,432.7165397023782,None,1,0.6688665933907032,432.7165397023782,None,434.71655385475606,None,2,0.46847663447260857,434.71655385475606,None,434.71655385475606,None,001,35,2020_Jan_07_1416,Block4,3.1.2,59.945392248870846,
videoBlock_schemaS_pathB_5.csv,south.png,stims/wedding-31.1a.mp4,stims/wedding-31.1b.mp4,stims/wedding-31.2b.mp4,stims/wedding-31.3a.mp4,stims/wedding-31.4b.mp4,stims/wedding-31.5.mp4,stimsday1details/painting31.png,stimsday1details/couple31.png,stimsday1details/gift31.png,stimsday1details/newpainting11.png,stimsday1details/newperson23.png,stimsday1details/new23.png,stimsday1details/cn31.png,stimsday1details/ct31.png,stimsday1details/n31.png,stimsday1details/t31.png,0,3,3,4,0,0,0,0,0,0,0,0,,,,,,,,,,,,,,,,,436.9663348970935,None,2.8406135533005,None,446.2996424101293,468.9994548987597,468.9994548987597,477.9660080568865,477.9826688673347,None,494.98245658166707,517.9655357822776,517.9821615442634,541.9651784319431,541.9816495096311,None,446.2996424101293,446.2996424101293,,,,,,,,,,,,,,,,,,,,,,,,,,,,,,,,,,,,,,,,,,,,,,,,,,,,,,,,,,,,,,,,,,,,,,,,,,,,,,,001,35,2020_Jan_07_1416,Block4,3.1.2,59.945392248870846,
videoBlock_schemaS_pathB_5.csv,south.png,stims/wedding-31.1a.mp4,stims/wedding-31.1b.mp4,stims/wedding-31.2b.mp4,stims/wedding-31.3a.mp4,stims/wedding-31.4b.mp4,stims/wedding-31.5.mp4,stimsday1details/painting31.png,stimsday1details/couple31.png,stimsday1details/gift31.png,stimsday1details/newpainting11.png,stimsday1details/newperson23.png,stimsday1details/new23.png,stimsday1details/cn31.png,stimsday1details/ct31.png,stimsday1details/n31.png,stimsday1details/t31.png,0,3,3,4,0,0,0,0,,,,,0,0,0,0,,,,,,,,,,,,,,,,,,,,,,,,,,,,,,,None,None,None,None,None,None,None,None,None,None,None,None,None,None,None,None,None,None,None,,None,None,None,,None,None,None,None,,,,,,,,,,,,,,,,,,,,,,,,,,,,,,,,,,,,,,,,,,,,,,,,,,,001,35,2020_Jan_07_1416,Block4,3.1.2,59.945392248870846,
videoBlock_schemaS_pathB_5.csv,south.png,stims/wedding-31.1a.mp4,stims/wedding-31.1b.mp4,stims/wedding-31.2b.mp4,stims/wedding-31.3a.mp4,stims/wedding-31.4b.mp4,stims/wedding-31.5.mp4,stimsday1details/painting31.png,stimsday1details/couple31.png,stimsday1details/gift31.png,stimsday1details/newpainting11.png,stimsday1details/newperson23.png,stimsday1details/new23.png,stimsday1details/cn31.png,stimsday1details/ct31.png,stimsday1details/n31.png,stimsday1details/t31.png,0,3,3,4,0,0,0,0,,,,,,,,,,,,,,,,,,,,,,,,,,,,,,,,,,,,,,,,,,,,,,,,,,,,,,,,,,,,,,,,,,,4.614144563674927e-05,None,2,0.9834641627967358,559.3170907646418,None,559.3170907646418,None,559.3170907646418,None,561.2983214212582,None,1,0.901826485991478,561.2983214212582,None,561.2983214212582,None,563.2980865966529,None,563.2980865966529,None,1,0.7021973505616188,563.2980865966529,None,2,0.9521982436999679,565.298270015046,None,565.298270015046,None,565.298270015046,None,567.2980397772044,None,567.2980397772044,None,1,0.8021966954693198,567.2980397772044,None,569.2982666930184,None,2,0.7354464437812567,569.2982666930184,None,569.2982666930184,None,001,35,2020_Jan_07_1416,Block4,3.1.2,59.945392248870846,
videoBlock_schemaS_pathA_5.csv,south.png,stims/wedding-26.1a.mp4,stims/wedding-26.1b.mp4,stims/wedding-26.2a.mp4,stims/wedding-26.3b.mp4,stims/wedding-26.4a.mp4,stims/wedding-26.5.mp4,stimsday1details/egg26.png,stimsday1details/couple26.png,stimsday1details/gift26.png,stimsday1details/newegg11.png,stimsday1details/newperson11.png,stimsday1details/new11.png,stimsday1details/cn26.png,stimsday1details/ct26.png,stimsday1details/n26.png,stimsday1details/t26.png,0,4,4,1,0,0,0,0,0,0,0,0,,,,,,,,,,,,,,,,,571.5814844565466,None,2.9905008636415005,None,581.0647820318118,None,603.5978620285168,612.5809869393706,612.5976566579193,None,629.5973928598687,652.580320969224,652.596961398609,676.5800127349794,676.5968303531408,None,581.0647820318118,581.0647820318118,,,,,,,,,,,,,,,,,,,,,,,,,,,,,,,,,,,,,,,,,,,,,,,,,,,,,,,,,,,,,,,,,,,,,,,,,,,,,,,001,35,2020_Jan_07_1416,Block4,3.1.2,59.945392248870846,
videoBlock_schemaS_pathA_5.csv,south.png,stims/wedding-26.1a.mp4,stims/wedding-26.1b.mp4,stims/wedding-26.2a.mp4,stims/wedding-26.3b.mp4,stims/wedding-26.4a.mp4,stims/wedding-26.5.mp4,stimsday1details/egg26.png,stimsday1details/couple26.png,stimsday1details/gift26.png,stimsday1details/newegg11.png,stimsday1details/newperson11.png,stimsday1details/new11.png,stimsday1details/cn26.png,stimsday1details/ct26.png,stimsday1details/n26.png,stimsday1details/t26.png,0,4,4,1,0,0,0,0,,,,,0,0,0,0,,,,,,,,,,,,,,,,,,,,,,,,,,,,,,,None,None,None,None,None,None,None,None,None,None,None,None,None,None,None,None,None,None,None,,None,None,None,,None,None,None,None,,,,,,,,,,,,,,,,,,,,,,,,,,,,,,,,,,,,,,,,,,,,,,,,,,,001,35,2020_Jan_07_1416,Block4,3.1.2,59.945392248870846,
videoBlock_schemaS_pathA_5.csv,south.png,stims/wedding-26.1a.mp4,stims/wedding-26.1b.mp4,stims/wedding-26.2a.mp4,stims/wedding-26.3b.mp4,stims/wedding-26.4a.mp4,stims/wedding-26.5.mp4,stimsday1details/egg26.png,stimsday1details/couple26.png,stimsday1details/gift26.png,stimsday1details/newegg11.png,stimsday1details/newperson11.png,stimsday1details/new11.png,stimsday1details/cn26.png,stimsday1details/ct26.png,stimsday1details/n26.png,stimsday1details/t26.png,0,4,4,1,0,0,0,0,,,,,,,,,,,,,,,,,,,,,,,,,,,,,,,,,,,,,,,,,,,,,,,,,,,,,,,,,,,,,,,,,,,4.588346928358078e-05,None,2,1.035504582338035,694.5632035806775,None,694.5632035806775,None,694.5632035806775,None,696.5463595818728,None,1,0.6018639504909515,696.5463595818728,None,696.5463595818728,None,698.5463370475918,None,698.5463370475918,None,1,1.0689064944162965,698.5463370475918,None,2,1.0025487495586276,700.5465686339885,None,700.5465686339885,None,700.5465686339885,None,702.546397967264,None,702.546397967264,None,1,1.1189115960150957,702.546397967264,None,704.5464504631236,None,2,0.6688055144622922,704.5464504631236,None,704.5464504631236,None,001,35,2020_Jan_07_1416,Block4,3.1.2,59.945392248870846,
videoBlock_schemaS_pathA_4.csv,south.png,stims/wedding-21.1a.mp4,stims/wedding-21.1b.mp4,stims/wedding-21.2a.mp4,stims/wedding-21.3b.mp4,stims/wedding-21.4a.mp4,stims/wedding-21.5.mp4,stimsday1details/egg21.png,stimsday1details/newperson10.png,stimsday1details/gift21.png,stimsday1details/newegg10.png,stimsday1details/couple21.png,stimsday1details/new10.png,stimsday1details/n21.png,stimsday1details/ct21.png,stimsday1details/cn21.png,stimsday1details/t21.png,0,5,5,0,0,0,0,0,0,0,0,0,,,,,,,,,,,,,,,,,706.8631167393178,None,None,None,None,None,None,None,None,None,None,None,None,None,None,None,None,None,,,,,,,,,,,,,,,,,,,,,,,,,,,,,,,,,,,,,,,,,,,,,,,,,,,,,,,,,,,,,,,,,,,,,,,,,,,,,,,001,35,2020_Jan_07_1416,Block4,3.1.2,59.945392248870846,
videoBlock_schemaS_pathA_4.csv,south.png,stims/wedding-21.1a.mp4,stims/wedding-21.1b.mp4,stims/wedding-21.2a.mp4,stims/wedding-21.3b.mp4,stims/wedding-21.4a.mp4,stims/wedding-21.5.mp4,stimsday1details/egg21.png,stimsday1details/newperson10.png,stimsday1details/gift21.png,stimsday1details/newegg10.png,stimsday1details/couple21.png,stimsday1details/new10.png,stimsday1details/n21.png,stimsday1details/ct21.png,stimsday1details/cn21.png,stimsday1details/t21.png,0,5,5,0,0,0,0,0,,,,,0,0,0,0,,,,,,,,,,,,,,,,,,,,,,,,,,,,,,,2.850430455058813,None,719.4630698328838,742.1125261429697,742.1294394759461,None,751.129253312014,768.1123906048015,768.12904376816,772.1123408963904,772.1289562135935,795.1120512681082,795.1287281597033,799.1119035482407,799.1286932751536,823.1115699457005,823.1281836489215,None,['2'],[2.935749161988497],767.128913438879,772.1123408963904,['1'],[2.2520217346027493],794.1286916863173,799.1119035482407,719.4630698328838,719.4630698328838,,,,,,,,,,,,,,,,,,,,,,,,,,,,,,,,,,,,,,,,,,,,,,,,,,,001,35,2020_Jan_07_1416,Block4,3.1.2,59.945392248870846,
videoBlock_schemaS_pathA_4.csv,south.png,stims/wedding-21.1a.mp4,stims/wedding-21.1b.mp4,stims/wedding-21.2a.mp4,stims/wedding-21.3b.mp4,stims/wedding-21.4a.mp4,stims/wedding-21.5.mp4,stimsday1details/egg21.png,stimsday1details/newperson10.png,stimsday1details/gift21.png,stimsday1details/newegg10.png,stimsday1details/couple21.png,stimsday1details/new10.png,stimsday1details/n21.png,stimsday1details/ct21.png,stimsday1details/cn21.png,stimsday1details/t21.png,0,5,5,0,0,0,0,0,,,,,,,,,,,,,,,,,,,,,,,,,,,,,,,,,,,,,,,,,,,,,,,,,,,,,,,,,,,,,,,,,,,4.3029896914958954e-05,None,1,0.8354606991633773,838.4115803847089,None,838.4115803847089,None,838.4115803847089,None,840.3945764815435,None,1,1.135588158853352,840.3945764815435,None,840.3945764815435,None,842.3945469176397,None,842.3945469176397,None,2,1.1192555744200945,842.3945469176397,None,2,1.0024006171151996,844.3946170508862,None,844.3946170508862,None,844.3946170508862,None,846.394738596864,None,846.394738596864,None,1,0.6683340724557638,846.394738596864,None,848.3944788184017,None,2,0.8190325759351254,848.3944788184017,None,848.3944788184017,None,001,35,2020_Jan_07_1416,Block4,3.1.2,59.945392248870846,
