northOrSouth,stimFile1a,stimFile1b,stimFile2,stimFile3,stimFile4,stimFile5,Qeggpainting1,Qeggpainting2,Qcharacter1,Qcharacter2,Qgift1,Qgift2,Qname1,Qname2,Qtheme1,Qtheme2,trials.thisRepN,trials.thisTrialN,trials.thisN,trials.thisIndex,South.thisRepN,South.thisTrialN,South.thisN,South.thisIndex,North.thisRepN,North.thisTrialN,North.thisN,North.thisIndex,noQtrials.thisRepN,noQtrials.thisTrialN,noQtrials.thisN,noQtrials.thisIndex,Qtrials.thisRepN,Qtrials.thisTrialN,Qtrials.thisN,Qtrials.thisIndex,text.started,text.stopped,prep_trigger.keys,prep_trigger.rt,prep_trigger.started,prep_trigger.stopped,waiting.started,waiting.stopped,trigger.keys,trigger.rt,trigger.started,trigger.stopped,southCueImage.started,southCueImage.stopped,northCueImage.started,northCueImage.stopped,trialNoQs.started,trialNoQs.stopped,vid1a.started,vid1a.stopped,vid1b.started,vid1b.stopped,vid2.started,vid2.stopped,vid3.started,vid3.stopped,vid4.started,vid4.stopped,vid5.started,vid5.stopped,ISI2.started,ISI2.stopped,vid1a_q.started,vid1a_q.stopped,vid1b_q.started,vid1b_q.stopped,vid2_q.started,vid2_q.stopped,l2q.started,l2q.stopped,vid3_q.started,vid3_q.stopped,l3q.started,l3q.stopped,vid4_q.started,vid4_q.stopped,vid5_q.started,vid5_q.stopped,key_resp_2.keys,key_resp_2.rt,key_resp_2.started,key_resp_2.stopped,key_resp_3.keys,key_resp_3.rt,key_resp_3.started,key_resp_3.stopped,ISI7.started,ISI7.stopped,nameQresp.keys,nameQresp.rt,nameQresp.started,nameQresp.stopped,nameQ1.started,nameQ1.stopped,nameQ2.started,nameQ2.stopped,eggPainting1.started,eggPainting1.stopped,eggPaintingQresp.keys,eggPaintingQresp.rt,eggPaintingQresp.started,eggPaintingQresp.stopped,eggPainting2.started,eggPainting2.stopped,character1.started,character1.stopped,character2.started,character2.stopped,Qcharacter.keys,Qcharacter.rt,Qcharacter.started,Qcharacter.stopped,themeQresp.keys,themeQresp.rt,themeQresp.started,themeQresp.stopped,themeQ1.started,themeQ1.stopped,themeQ2.started,themeQ2.stopped,gift1.started,gift1.stopped,gift2.started,gift2.stopped,giftQresp.keys,giftQresp.rt,giftQresp.started,giftQresp.stopped,northorsouth1.started,northorsouth1.stopped,northorsouth2.started,northorsouth2.stopped,northOrSouthQ.keys,northOrSouthQ.rt,northOrSouthQ.started,northOrSouthQ.stopped,session,participant,date,expName,psychopyVersion,frameRate,
,,,,,,,,,,,,,,,,,,,,,,,,,,,,,,,,,,,,,7.832996309000009,None,g,1.1544763250003598,7.832996309000009,None,,,,,,,,,,,,,,,,,,,,,,,,,,,,,,,,,,,,,,,,,,,,,,,,,,,,,,,,,,,,,,,,,,,,,,,,,,,,,,,,,,,,,,,,,,,,,,,,,,,,,001,18,2019_Sep_27_0918,viewing,3.1.2,60.01342332248645,
,,,,,,,,,,,,,,,,,,,,,,,,,,,,,,,,,,,,,,,,,,,8.999728237999989,None,equal,18.41869484200015,8.999728237999989,None,,,,,,,,,,,,,,,,,,,,,,,,,,,,,,,,,,,,,,,,,,,,,,,,,,,,,,,,,,,,,,,,,,,,,,,,,,,,,,,,,,,,,,,,,,,,,,,001,18,2019_Sep_27_0918,viewing,3.1.2,60.01342332248645,
south.png,stims/wedding-29.1a.mp4,stims/wedding-29.1b.mp4,stims/wedding-29.2b.mp4,stims/wedding-29.3a.mp4,stims/wedding-29.4b.mp4,stims/wedding-29.5.mp4,stimsday2details/newpainting13.png,stimsday2details/painting29.png,stimsday2details/newperson25.png,stimsday2details/couple29.png,stimsday2details/new25.png,stimsday2details/gift29.png,stimsday2details/cn29.png,stimsday2details/n29.png,stimsday2details/ct29.png,stimsday2details/t29.png,0,0,0,0,0,0,0,0,,,,,,,,,,,,,,,,,,,,,,,,,27.466087676999905,None,,,,,,,,,,,,,,,,,,,,,,,,,,,,,,,,,,,,,,,,,,,,,,,,,,,,,,,,,,,,,,,,,,,,,,,,,,,,,,,,,,,,,,,,,,,,,001,18,2019_Sep_27_0918,viewing,3.1.2,60.01342332248645,
south.png,stims/wedding-29.1a.mp4,stims/wedding-29.1b.mp4,stims/wedding-29.2b.mp4,stims/wedding-29.3a.mp4,stims/wedding-29.4b.mp4,stims/wedding-29.5.mp4,stimsday2details/newpainting13.png,stimsday2details/painting29.png,stimsday2details/newperson25.png,stimsday2details/couple29.png,stimsday2details/new25.png,stimsday2details/gift29.png,stimsday2details/cn29.png,stimsday2details/n29.png,stimsday2details/ct29.png,stimsday2details/t29.png,0,0,0,0,,,,,0,0,0,0,,,,,,,,,,,,,,,,,,,,,,,None,None,,,,,,,,,,,,,,,,,,,,,,,,,,,,,,,,,,,,,,,,,,,,,,,,,,,,,,,,,,,,,,,,,,,,,,,,,,,,,,,,,,,,,,,,,,,001,18,2019_Sep_27_0918,viewing,3.1.2,60.01342332248645,
south.png,stims/wedding-29.1a.mp4,stims/wedding-29.1b.mp4,stims/wedding-29.2b.mp4,stims/wedding-29.3a.mp4,stims/wedding-29.4b.mp4,stims/wedding-29.5.mp4,stimsday2details/newpainting13.png,stimsday2details/painting29.png,stimsday2details/newperson25.png,stimsday2details/couple29.png,stimsday2details/new25.png,stimsday2details/gift29.png,stimsday2details/cn29.png,stimsday2details/n29.png,stimsday2details/ct29.png,stimsday2details/t29.png,0,0,0,0,,,,,,,,,0,0,0,0,,,,,,,,,,,,,,,,,,,,,None,None,None,None,None,None,None,None,None,None,None,None,None,None,,,,,,,,,,,,,,,,,,,,,,,,,,,,,,,,,,,,,,,,,,,,,,,,,,,,,,,,,,,,,,,,,,,,,,,,,,,,,001,18,2019_Sep_27_0918,viewing,3.1.2,60.01342332248645,
south.png,stims/wedding-29.1a.mp4,stims/wedding-29.1b.mp4,stims/wedding-29.2b.mp4,stims/wedding-29.3a.mp4,stims/wedding-29.4b.mp4,stims/wedding-29.5.mp4,stimsday2details/newpainting13.png,stimsday2details/painting29.png,stimsday2details/newperson25.png,stimsday2details/couple29.png,stimsday2details/new25.png,stimsday2details/gift29.png,stimsday2details/cn29.png,stimsday2details/n29.png,stimsday2details/ct29.png,stimsday2details/t29.png,0,0,0,0,,,,,,,,,,,,,0,0,0,0,,,,,,,,,,,,,,,,,,,,,,,,,,,,,,,2.506565439000042,None,39.782677223000064,None,65.29901414300002,None,74.29890357600016,None,91.2986903269998,95.28197345499984,95.29863844400006,None,118.29835481700002,122.28164111700016,122.29830541799993,None,146.2980052140001,None,['1'],[3.2017578310001227],90.29870466300008,95.28197345499984,['2'],[2.5356425390000368],117.29836748800017,122.28164111700016,,,,,,,,,,,,,,,,,,,,,,,,,,,,,,,,,,,,,,,,,,,,,,,,,,,001,18,2019_Sep_27_0918,viewing,3.1.2,60.01342332248645,
south.png,stims/wedding-29.1a.mp4,stims/wedding-29.1b.mp4,stims/wedding-29.2b.mp4,stims/wedding-29.3a.mp4,stims/wedding-29.4b.mp4,stims/wedding-29.5.mp4,stimsday2details/newpainting13.png,stimsday2details/painting29.png,stimsday2details/newperson25.png,stimsday2details/couple29.png,stimsday2details/new25.png,stimsday2details/gift29.png,stimsday2details/cn29.png,stimsday2details/n29.png,stimsday2details/ct29.png,stimsday2details/t29.png,0,0,0,0,,,,,,,,,,,,,,,,,,,,,,,,,,,,,,,,,,,,,,,,,,,,,,,,,,,,,,,,,,,,,,,,,,,,,,,,,1.5241999790305272e-05,None,2,1.1517309089999799,166.59776651899983,None,166.59776651899983,None,166.59776651899983,None,168.59773657699998,None,2,0.8520766470001035,168.59773657699998,None,168.59773657699998,None,170.59771695500012,None,170.59771695500012,None,2,0.8017822740002885,170.59771695500012,None,2,1.4353456740000183,172.597686609,None,172.597686609,None,172.597686609,None,174.59766739099996,None,174.59766739099996,None,2,0.8019887249997737,174.59766739099996,None,176.597642877,None,176.597642877,None,2,1.0349475289999646,176.597642877,None,001,18,2019_Sep_27_0918,viewing,3.1.2,60.01342332248645,
north.png,stims/wedding-22.1a.mp4,stims/wedding-22.1b.mp4,stims/wedding-22.2a.mp4,stims/wedding-22.3a.mp4,stims/wedding-22.4a.mp4,stims/wedding-22.5.mp4,stimsday2details/newegg13.png,stimsday2details/egg22.png,stimsday2details/newperson26.png,stimsday2details/couple22.png,stimsday2details/new26.png,stimsday2details/gift22.png,stimsday2details/n22.png,stimsday2details/cn22.png,stimsday2details/t22.png,stimsday2details/ct22.png,0,1,1,1,0,0,0,0,,,,,,,,,,,,,,,,,,,,,,,,,None,None,,,,,,,,,,,,,,,,,,,,,,,,,,,,,,,,,,,,,,,,,,,,,,,,,,,,,,,,,,,,,,,,,,,,,,,,,,,,,,,,,,,,,,,,,,,,,001,18,2019_Sep_27_0918,viewing,3.1.2,60.01342332248645,
north.png,stims/wedding-22.1a.mp4,stims/wedding-22.1b.mp4,stims/wedding-22.2a.mp4,stims/wedding-22.3a.mp4,stims/wedding-22.4a.mp4,stims/wedding-22.5.mp4,stimsday2details/newegg13.png,stimsday2details/egg22.png,stimsday2details/newperson26.png,stimsday2details/couple22.png,stimsday2details/new26.png,stimsday2details/gift22.png,stimsday2details/n22.png,stimsday2details/cn22.png,stimsday2details/t22.png,stimsday2details/ct22.png,0,1,1,1,,,,,0,0,0,0,,,,,,,,,,,,,,,,,,,,,,,178.64757242999985,None,,,,,,,,,,,,,,,,,,,,,,,,,,,,,,,,,,,,,,,,,,,,,,,,,,,,,,,,,,,,,,,,,,,,,,,,,,,,,,,,,,,,,,,,,,,001,18,2019_Sep_27_0918,viewing,3.1.2,60.01342332248645,
north.png,stims/wedding-22.1a.mp4,stims/wedding-22.1b.mp4,stims/wedding-22.2a.mp4,stims/wedding-22.3a.mp4,stims/wedding-22.4a.mp4,stims/wedding-22.5.mp4,stimsday2details/newegg13.png,stimsday2details/egg22.png,stimsday2details/newperson26.png,stimsday2details/couple22.png,stimsday2details/new26.png,stimsday2details/gift22.png,stimsday2details/n22.png,stimsday2details/cn22.png,stimsday2details/t22.png,stimsday2details/ct22.png,0,1,1,1,,,,,,,,,0,0,0,0,,,,,,,,,,,,,,,,,,,,,2.9614177769999515,None,188.6641586589999,213.69718139899987,213.71385108799996,None,222.71374027499996,239.69686009199995,239.71353642199983,262.6965798750002,262.71323579299997,286.6962212049998,286.7128866779999,None,,,,,,,,,,,,,,,,,,,,,,,,,,,,,,,,,,,,,,,,,,,,,,,,,,,,,,,,,,,,,,,,,,,,,,,,,,,,,001,18,2019_Sep_27_0918,viewing,3.1.2,60.01342332248645,
north.png,stims/wedding-22.1a.mp4,stims/wedding-22.1b.mp4,stims/wedding-22.2a.mp4,stims/wedding-22.3a.mp4,stims/wedding-22.4a.mp4,stims/wedding-22.5.mp4,stimsday2details/newegg13.png,stimsday2details/egg22.png,stimsday2details/newperson26.png,stimsday2details/couple22.png,stimsday2details/new26.png,stimsday2details/gift22.png,stimsday2details/n22.png,stimsday2details/cn22.png,stimsday2details/t22.png,stimsday2details/ct22.png,0,1,1,1,,,,,,,,,,,,,0,0,0,0,,,,,,,,,,,,,,,,,,,,,,,,,,,,,,,None,None,None,None,None,None,None,None,None,None,None,None,None,None,None,None,None,None,None,,None,None,None,,None,None,,,,,,,,,,,,,,,,,,,,,,,,,,,,,,,,,,,,,,,,,,,,,,,,,,,001,18,2019_Sep_27_0918,viewing,3.1.2,60.01342332248645,
north.png,stims/wedding-22.1a.mp4,stims/wedding-22.1b.mp4,stims/wedding-22.2a.mp4,stims/wedding-22.3a.mp4,stims/wedding-22.4a.mp4,stims/wedding-22.5.mp4,stimsday2details/newegg13.png,stimsday2details/egg22.png,stimsday2details/newperson26.png,stimsday2details/couple22.png,stimsday2details/new26.png,stimsday2details/gift22.png,stimsday2details/n22.png,stimsday2details/cn22.png,stimsday2details/t22.png,stimsday2details/ct22.png,0,1,1,1,,,,,,,,,,,,,,,,,,,,,,,,,,,,,,,,,,,,,,,,,,,,,,,,,,,,,,,,,,,,,,,,,,,,,,,,,2.5224999717465835e-05,None,1,0.6998294300001362,310.18159525300007,None,310.18159525300007,None,310.18159525300007,None,312.1626333959998,None,2,0.7502923729998656,312.1626333959998,None,312.1626333959998,None,314.162609556,None,314.162609556,None,2,0.8186945469997227,314.162609556,None,1,1.485357133999969,316.16251728999987,None,316.16251728999987,None,316.16251728999987,None,318.16256531299996,None,318.16256531299996,None,2,0.7020938929999829,318.16256531299996,None,320.16253952299985,None,320.16253952299985,None,1,0.6352378440001303,320.16253952299985,None,001,18,2019_Sep_27_0918,viewing,3.1.2,60.01342332248645,
north.png,stims/wedding-19.1a.mp4,stims/wedding-19.1b.mp4,stims/wedding-19.2b.mp4,stims/wedding-19.3b.mp4,stims/wedding-19.4b.mp4,stims/wedding-19.5.mp4,stimsday2details/painting19.png,stimsday2details/newpainting14.png,stimsday2details/newperson27.png,stimsday2details/couple19.png,stimsday2details/new27.png,stimsday2details/gift19.png,stimsday2details/n19.png,stimsday2details/cn19.png,stimsday2details/ct19.png,stimsday2details/t19.png,0,2,2,2,0,0,0,0,,,,,,,,,,,,,,,,,,,,,,,,,None,None,,,,,,,,,,,,,,,,,,,,,,,,,,,,,,,,,,,,,,,,,,,,,,,,,,,,,,,,,,,,,,,,,,,,,,,,,,,,,,,,,,,,,,,,,,,,,001,18,2019_Sep_27_0918,viewing,3.1.2,60.01342332248645,
north.png,stims/wedding-19.1a.mp4,stims/wedding-19.1b.mp4,stims/wedding-19.2b.mp4,stims/wedding-19.3b.mp4,stims/wedding-19.4b.mp4,stims/wedding-19.5.mp4,stimsday2details/painting19.png,stimsday2details/newpainting14.png,stimsday2details/newperson27.png,stimsday2details/couple19.png,stimsday2details/new27.png,stimsday2details/gift19.png,stimsday2details/n19.png,stimsday2details/cn19.png,stimsday2details/ct19.png,stimsday2details/t19.png,0,2,2,2,,,,,0,0,0,0,,,,,,,,,,,,,,,,,,,,,,,322.2291784939998,None,,,,,,,,,,,,,,,,,,,,,,,,,,,,,,,,,,,,,,,,,,,,,,,,,,,,,,,,,,,,,,,,,,,,,,,,,,,,,,,,,,,,,,,,,,,001,18,2019_Sep_27_0918,viewing,3.1.2,60.01342332248645,
north.png,stims/wedding-19.1a.mp4,stims/wedding-19.1b.mp4,stims/wedding-19.2b.mp4,stims/wedding-19.3b.mp4,stims/wedding-19.4b.mp4,stims/wedding-19.5.mp4,stimsday2details/painting19.png,stimsday2details/newpainting14.png,stimsday2details/newperson27.png,stimsday2details/couple19.png,stimsday2details/new27.png,stimsday2details/gift19.png,stimsday2details/n19.png,stimsday2details/cn19.png,stimsday2details/ct19.png,stimsday2details/t19.png,0,2,2,2,,,,,,,,,0,0,0,0,,,,,,,,,,,,,,,,,,,,,2.8933929539998644,None,332.2001980310001,357.295401629,357.31206912900007,None,366.3119609959999,383.295083514,383.3117582179998,406.3114626910001,406.3114626910001,None,430.31117778199996,None,,,,,,,,,,,,,,,,,,,,,,,,,,,,,,,,,,,,,,,,,,,,,,,,,,,,,,,,,,,,,,,,,,,,,,,,,,,,,001,18,2019_Sep_27_0918,viewing,3.1.2,60.01342332248645,
north.png,stims/wedding-19.1a.mp4,stims/wedding-19.1b.mp4,stims/wedding-19.2b.mp4,stims/wedding-19.3b.mp4,stims/wedding-19.4b.mp4,stims/wedding-19.5.mp4,stimsday2details/painting19.png,stimsday2details/newpainting14.png,stimsday2details/newperson27.png,stimsday2details/couple19.png,stimsday2details/new27.png,stimsday2details/gift19.png,stimsday2details/n19.png,stimsday2details/cn19.png,stimsday2details/ct19.png,stimsday2details/t19.png,0,2,2,2,,,,,,,,,,,,,0,0,0,0,,,,,,,,,,,,,,,,,,,,,,,,,,,,,,,None,None,None,None,None,None,None,None,None,None,None,None,None,None,None,None,None,None,None,,None,None,None,,None,None,,,,,,,,,,,,,,,,,,,,,,,,,,,,,,,,,,,,,,,,,,,,,,,,,,,001,18,2019_Sep_27_0918,viewing,3.1.2,60.01342332248645,
north.png,stims/wedding-19.1a.mp4,stims/wedding-19.1b.mp4,stims/wedding-19.2b.mp4,stims/wedding-19.3b.mp4,stims/wedding-19.4b.mp4,stims/wedding-19.5.mp4,stimsday2details/painting19.png,stimsday2details/newpainting14.png,stimsday2details/newperson27.png,stimsday2details/couple19.png,stimsday2details/new27.png,stimsday2details/gift19.png,stimsday2details/n19.png,stimsday2details/cn19.png,stimsday2details/ct19.png,stimsday2details/t19.png,0,2,2,2,,,,,,,,,,,,,,,,,,,,,,,,,,,,,,,,,,,,,,,,,,,,,,,,,,,,,,,,,,,,,,,,,,,,,,,,,3.121700001429417e-05,None,1,1.335286107000229,454.3275461090002,None,454.3275461090002,None,454.3275461090002,None,456.31084758,None,1,0.7188068090003981,456.31084758,None,456.31084758,None,458.31083677100014,None,458.31083677100014,None,2,0.7184106629997586,458.31083677100014,None,2,1.4686029660001623,460.31080176800015,None,460.31080176800015,None,460.31080176800015,None,462.3107659960001,None,462.3107659960001,None,2,1.9184053779999886,462.3107659960001,None,464.310748119,None,464.310748119,None,1,0.685567352000362,464.310748119,None,001,18,2019_Sep_27_0918,viewing,3.1.2,60.01342332248645,
south.png,stims/wedding-17.1a.mp4,stims/wedding-17.1b.mp4,stims/wedding-17.2a.mp4,stims/wedding-17.3b.mp4,stims/wedding-17.4a.mp4,stims/wedding-17.5.mp4,stimsday2details/newegg14.png,stimsday2details/egg17.png,stimsday2details/newperson28.png,stimsday2details/couple17.png,stimsday2details/gift17.png,stimsday2details/new28.png,stimsday2details/n17.png,stimsday2details/cn17.png,stimsday2details/ct17.png,stimsday2details/t17.png,0,3,3,3,0,0,0,0,,,,,,,,,,,,,,,,,,,,,,,,,466.3107251659999,None,,,,,,,,,,,,,,,,,,,,,,,,,,,,,,,,,,,,,,,,,,,,,,,,,,,,,,,,,,,,,,,,,,,,,,,,,,,,,,,,,,,,,,,,,,,,,001,18,2019_Sep_27_0918,viewing,3.1.2,60.01342332248645,
south.png,stims/wedding-17.1a.mp4,stims/wedding-17.1b.mp4,stims/wedding-17.2a.mp4,stims/wedding-17.3b.mp4,stims/wedding-17.4a.mp4,stims/wedding-17.5.mp4,stimsday2details/newegg14.png,stimsday2details/egg17.png,stimsday2details/newperson28.png,stimsday2details/couple17.png,stimsday2details/gift17.png,stimsday2details/new28.png,stimsday2details/n17.png,stimsday2details/cn17.png,stimsday2details/ct17.png,stimsday2details/t17.png,0,3,3,3,,,,,0,0,0,0,,,,,,,,,,,,,,,,,,,,,,,None,None,,,,,,,,,,,,,,,,,,,,,,,,,,,,,,,,,,,,,,,,,,,,,,,,,,,,,,,,,,,,,,,,,,,,,,,,,,,,,,,,,,,,,,,,,,,001,18,2019_Sep_27_0918,viewing,3.1.2,60.01342332248645,
south.png,stims/wedding-17.1a.mp4,stims/wedding-17.1b.mp4,stims/wedding-17.2a.mp4,stims/wedding-17.3b.mp4,stims/wedding-17.4a.mp4,stims/wedding-17.5.mp4,stimsday2details/newegg14.png,stimsday2details/egg17.png,stimsday2details/newperson28.png,stimsday2details/couple17.png,stimsday2details/gift17.png,stimsday2details/new28.png,stimsday2details/n17.png,stimsday2details/cn17.png,stimsday2details/ct17.png,stimsday2details/t17.png,0,3,3,3,,,,,,,,,0,0,0,0,,,,,,,,,,,,,,,,,,,,,2.934133687999747,None,476.427268765,None,501.49360183299996,None,510.49350883399984,527.4932978279999,527.4932978279999,550.493018789,550.5096806739998,None,574.5093834139998,None,,,,,,,,,,,,,,,,,,,,,,,,,,,,,,,,,,,,,,,,,,,,,,,,,,,,,,,,,,,,,,,,,,,,,,,,,,,,,001,18,2019_Sep_27_0918,viewing,3.1.2,60.01342332248645,
south.png,stims/wedding-17.1a.mp4,stims/wedding-17.1b.mp4,stims/wedding-17.2a.mp4,stims/wedding-17.3b.mp4,stims/wedding-17.4a.mp4,stims/wedding-17.5.mp4,stimsday2details/newegg14.png,stimsday2details/egg17.png,stimsday2details/newperson28.png,stimsday2details/couple17.png,stimsday2details/gift17.png,stimsday2details/new28.png,stimsday2details/n17.png,stimsday2details/cn17.png,stimsday2details/ct17.png,stimsday2details/t17.png,0,3,3,3,,,,,,,,,,,,,0,0,0,0,,,,,,,,,,,,,,,,,,,,,,,,,,,,,,,None,None,None,None,None,None,None,None,None,None,None,None,None,None,None,None,None,None,None,,None,None,None,,None,None,,,,,,,,,,,,,,,,,,,,,,,,,,,,,,,,,,,,,,,,,,,,,,,,,,,001,18,2019_Sep_27_0918,viewing,3.1.2,60.01342332248645,
south.png,stims/wedding-17.1a.mp4,stims/wedding-17.1b.mp4,stims/wedding-17.2a.mp4,stims/wedding-17.3b.mp4,stims/wedding-17.4a.mp4,stims/wedding-17.5.mp4,stimsday2details/newegg14.png,stimsday2details/egg17.png,stimsday2details/newperson28.png,stimsday2details/couple17.png,stimsday2details/gift17.png,stimsday2details/new28.png,stimsday2details/n17.png,stimsday2details/cn17.png,stimsday2details/ct17.png,stimsday2details/t17.png,0,3,3,3,,,,,,,,,,,,,,,,,,,,,,,,,,,,,,,,,,,,,,,,,,,,,,,,,,,,,,,,,,,,,,,,,,,,,,,,,0.00012927799980388954,None,1,0.8851104680002209,598.1424179750002,None,598.1424179750002,None,598.1424179750002,None,600.1256640659999,None,2,0.6532608330003313,600.1256640659999,None,600.1256640659999,None,602.1256474719999,None,602.1256474719999,None,2,1.2200609620003888,602.1256474719999,None,2,1.3365761750001184,604.1256236690001,None,604.1256236690001,None,604.1256236690001,None,606.1255924490001,None,606.1255924490001,None,1,0.7197588950002682,606.1255924490001,None,608.1256271530001,None,608.1256271530001,None,2,1.3029504249998354,608.1256271530001,None,001,18,2019_Sep_27_0918,viewing,3.1.2,60.01342332248645,
south.png,stims/wedding-34.1a.mp4,stims/wedding-34.1b.mp4,stims/wedding-34.2a.mp4,stims/wedding-34.3b.mp4,stims/wedding-34.4a.mp4,stims/wedding-34.5.mp4,stimsday2details/egg34.png,stimsday2details/newegg15.png,stimsday2details/couple34.png,stimsday2details/newperson29.png,stimsday2details/gift34.png,stimsday2details/new29.png,stimsday2details/n34.png,stimsday2details/cn34.png,stimsday2details/ct34.png,stimsday2details/t34.png,0,4,4,4,0,0,0,0,,,,,,,,,,,,,,,,,,,,,,,,,610.1256072360002,None,,,,,,,,,,,,,,,,,,,,,,,,,,,,,,,,,,,,,,,,,,,,,,,,,,,,,,,,,,,,,,,,,,,,,,,,,,,,,,,,,,,,,,,,,,,,,001,18,2019_Sep_27_0918,viewing,3.1.2,60.01342332248645,
south.png,stims/wedding-34.1a.mp4,stims/wedding-34.1b.mp4,stims/wedding-34.2a.mp4,stims/wedding-34.3b.mp4,stims/wedding-34.4a.mp4,stims/wedding-34.5.mp4,stimsday2details/egg34.png,stimsday2details/newegg15.png,stimsday2details/couple34.png,stimsday2details/newperson29.png,stimsday2details/gift34.png,stimsday2details/new29.png,stimsday2details/n34.png,stimsday2details/cn34.png,stimsday2details/ct34.png,stimsday2details/t34.png,0,4,4,4,,,,,0,0,0,0,,,,,,,,,,,,,,,,,,,,,,,None,None,,,,,,,,,,,,,,,,,,,,,,,,,,,,,,,,,,,,,,,,,,,,,,,,,,,,,,,,,,,,,,,,,,,,,,,,,,,,,,,,,,,,,,,,,,,001,18,2019_Sep_27_0918,viewing,3.1.2,60.01342332248645,
south.png,stims/wedding-34.1a.mp4,stims/wedding-34.1b.mp4,stims/wedding-34.2a.mp4,stims/wedding-34.3b.mp4,stims/wedding-34.4a.mp4,stims/wedding-34.5.mp4,stimsday2details/egg34.png,stimsday2details/newegg15.png,stimsday2details/couple34.png,stimsday2details/newperson29.png,stimsday2details/gift34.png,stimsday2details/new29.png,stimsday2details/n34.png,stimsday2details/cn34.png,stimsday2details/ct34.png,stimsday2details/t34.png,0,4,4,4,,,,,,,,,0,0,0,0,,,,,,,,,,,,,,,,,,,,,2.951917912999761,None,620.2922095550002,645.3418339760001,645.3586421230002,654.3417241960001,654.358391754,None,671.358296201,694.341225096,694.3578975089999,718.3409241549998,718.3576099510001,None,,,,,,,,,,,,,,,,,,,,,,,,,,,,,,,,,,,,,,,,,,,,,,,,,,,,,,,,,,,,,,,,,,,,,,,,,,,,,001,18,2019_Sep_27_0918,viewing,3.1.2,60.01342332248645,
south.png,stims/wedding-34.1a.mp4,stims/wedding-34.1b.mp4,stims/wedding-34.2a.mp4,stims/wedding-34.3b.mp4,stims/wedding-34.4a.mp4,stims/wedding-34.5.mp4,stimsday2details/egg34.png,stimsday2details/newegg15.png,stimsday2details/couple34.png,stimsday2details/newperson29.png,stimsday2details/gift34.png,stimsday2details/new29.png,stimsday2details/n34.png,stimsday2details/cn34.png,stimsday2details/ct34.png,stimsday2details/t34.png,0,4,4,4,,,,,,,,,,,,,0,0,0,0,,,,,,,,,,,,,,,,,,,,,,,,,,,,,,,None,None,None,None,None,None,None,None,None,None,None,None,None,None,None,None,None,None,None,,None,None,None,,None,None,,,,,,,,,,,,,,,,,,,,,,,,,,,,,,,,,,,,,,,,,,,,,,,,,,,001,18,2019_Sep_27_0918,viewing,3.1.2,60.01342332248645,
south.png,stims/wedding-34.1a.mp4,stims/wedding-34.1b.mp4,stims/wedding-34.2a.mp4,stims/wedding-34.3b.mp4,stims/wedding-34.4a.mp4,stims/wedding-34.5.mp4,stimsday2details/egg34.png,stimsday2details/newegg15.png,stimsday2details/couple34.png,stimsday2details/newperson29.png,stimsday2details/gift34.png,stimsday2details/new29.png,stimsday2details/n34.png,stimsday2details/cn34.png,stimsday2details/ct34.png,stimsday2details/t34.png,0,4,4,4,,,,,,,,,,,,,,,,,,,,,,,,,,,,,,,,,,,,,,,,,,,,,,,,,,,,,,,,,,,,,,,,,,,,,,,,,3.59799996658694e-05,None,2,0.7835945870001524,741.8104933459999,None,741.8104933459999,None,741.8104933459999,None,743.7906168,None,2,0.5864393210003982,743.7906168,None,743.7906168,None,745.790595469,None,745.790595469,None,2,1.2863490919999094,745.790595469,None,3,1.1701815429996714,747.7905710499999,None,747.7905710499999,None,747.7905710499999,None,749.7905371000002,None,749.7905371000002,None,2,0.6361979180001072,749.7905371000002,None,751.790517125,None,751.790517125,None,3,1.353134878000219,751.790517125,None,001,18,2019_Sep_27_0918,viewing,3.1.2,60.01342332248645,
north.png,stims/wedding-28.1a.mp4,stims/wedding-28.1b.mp4,stims/wedding-28.2b.mp4,stims/wedding-28.3b.mp4,stims/wedding-28.4b.mp4,stims/wedding-28.5.mp4,stimsday2details/painting28.png,stimsday2details/newpainting15.png,stimsday2details/newperson30.png,stimsday2details/couple28.png,stimsday2details/gift28.png,stimsday2details/new30.png,stimsday2details/n28.png,stimsday2details/cn28.png,stimsday2details/ct28.png,stimsday2details/t28.png,0,5,5,5,0,0,0,0,,,,,,,,,,,,,,,,,,,,,,,,,None,None,,,,,,,,,,,,,,,,,,,,,,,,,,,,,,,,,,,,,,,,,,,,,,,,,,,,,,,,,,,,,,,,,,,,,,,,,,,,,,,,,,,,,,,,,,,,,001,18,2019_Sep_27_0918,viewing,3.1.2,60.01342332248645,
north.png,stims/wedding-28.1a.mp4,stims/wedding-28.1b.mp4,stims/wedding-28.2b.mp4,stims/wedding-28.3b.mp4,stims/wedding-28.4b.mp4,stims/wedding-28.5.mp4,stimsday2details/painting28.png,stimsday2details/newpainting15.png,stimsday2details/newperson30.png,stimsday2details/couple28.png,stimsday2details/gift28.png,stimsday2details/new30.png,stimsday2details/n28.png,stimsday2details/cn28.png,stimsday2details/ct28.png,stimsday2details/t28.png,0,5,5,5,,,,,0,0,0,0,,,,,,,,,,,,,,,,,,,,,,,753.9238191200002,None,,,,,,,,,,,,,,,,,,,,,,,,,,,,,,,,,,,,,,,,,,,,,,,,,,,,,,,,,,,,,,,,,,,,,,,,,,,,,,,,,,,,,,,,,,,001,18,2019_Sep_27_0918,viewing,3.1.2,60.01342332248645,
north.png,stims/wedding-28.1a.mp4,stims/wedding-28.1b.mp4,stims/wedding-28.2b.mp4,stims/wedding-28.3b.mp4,stims/wedding-28.4b.mp4,stims/wedding-28.5.mp4,stimsday2details/painting28.png,stimsday2details/newpainting15.png,stimsday2details/newperson30.png,stimsday2details/couple28.png,stimsday2details/gift28.png,stimsday2details/new30.png,stimsday2details/n28.png,stimsday2details/cn28.png,stimsday2details/ct28.png,stimsday2details/t28.png,0,5,5,5,,,,,,,,,0,0,0,0,,,,,,,,,,,,,,,,,,,,,2.770317277000231,None,763.8403611690001,789.0567182700001,789.0733822120001,None,798.073271229,None,815.073062592,838.0561147190001,838.0727774500001,None,862.0724751530001,None,,,,,,,,,,,,,,,,,,,,,,,,,,,,,,,,,,,,,,,,,,,,,,,,,,,,,,,,,,,,,,,,,,,,,,,,,,,,,001,18,2019_Sep_27_0918,viewing,3.1.2,60.01342332248645,
north.png,stims/wedding-28.1a.mp4,stims/wedding-28.1b.mp4,stims/wedding-28.2b.mp4,stims/wedding-28.3b.mp4,stims/wedding-28.4b.mp4,stims/wedding-28.5.mp4,stimsday2details/painting28.png,stimsday2details/newpainting15.png,stimsday2details/newperson30.png,stimsday2details/couple28.png,stimsday2details/gift28.png,stimsday2details/new30.png,stimsday2details/n28.png,stimsday2details/cn28.png,stimsday2details/ct28.png,stimsday2details/t28.png,0,5,5,5,,,,,,,,,,,,,0,0,0,0,,,,,,,,,,,,,,,,,,,,,,,,,,,,,,,None,None,None,None,None,None,None,None,None,None,None,None,None,None,None,None,None,None,None,,None,None,None,,None,None,,,,,,,,,,,,,,,,,,,,,,,,,,,,,,,,,,,,,,,,,,,,,,,,,,,001,18,2019_Sep_27_0918,viewing,3.1.2,60.01342332248645,
north.png,stims/wedding-28.1a.mp4,stims/wedding-28.1b.mp4,stims/wedding-28.2b.mp4,stims/wedding-28.3b.mp4,stims/wedding-28.4b.mp4,stims/wedding-28.5.mp4,stimsday2details/painting28.png,stimsday2details/newpainting15.png,stimsday2details/newperson30.png,stimsday2details/couple28.png,stimsday2details/gift28.png,stimsday2details/new30.png,stimsday2details/n28.png,stimsday2details/cn28.png,stimsday2details/ct28.png,stimsday2details/t28.png,0,5,5,5,,,,,,,,,,,,,,,,,,,,,,,,,,,,,,,,,,,,,,,,,,,,,,,,,,,,,,,,,,,,,,,,,,,,,,,,,3.919399978258298e-05,None,1,1.0364269789997707,886.1555737939998,None,886.1555737939998,None,886.1555737939998,None,888.138820747,None,1,1.4030682089996844,888.138820747,None,888.138820747,None,890.1387938900002,None,890.1387938900002,None,2,0.9364830859999529,890.1387938900002,None,None,,892.138768672,None,892.138768672,None,892.138768672,None,894.1387451830001,None,894.1387451830001,None,1,1.1198331269997652,894.1387451830001,None,896.138723824,None,896.138723824,None,1,0.8532520339999792,896.138723824,None,001,18,2019_Sep_27_0918,viewing,3.1.2,60.01342332248645,
north.png,stims/wedding-20.1a.mp4,stims/wedding-20.1b.mp4,stims/wedding-20.2a.mp4,stims/wedding-20.3a.mp4,stims/wedding-20.4a.mp4,stims/wedding-20.5.mp4,stimsday2details/egg20.png,stimsday2details/newegg16.png,stimsday2details/couple20.png,stimsday2details/newperson31.png,stimsday2details/gift20.png,stimsday2details/new31.png,stimsday2details/cn20.png,stimsday2details/n20.png,stimsday2details/t20.png,stimsday2details/ct20.png,0,6,6,6,0,0,0,0,,,,,,,,,,,,,,,,,,,,,,,,,None,None,,,,,,,,,,,,,,,,,,,,,,,,,,,,,,,,,,,,,,,,,,,,,,,,,,,,,,,,,,,,,,,,,,,,,,,,,,,,,,,,,,,,,,,,,,,,,001,18,2019_Sep_27_0918,viewing,3.1.2,60.01342332248645,
north.png,stims/wedding-20.1a.mp4,stims/wedding-20.1b.mp4,stims/wedding-20.2a.mp4,stims/wedding-20.3a.mp4,stims/wedding-20.4a.mp4,stims/wedding-20.5.mp4,stimsday2details/egg20.png,stimsday2details/newegg16.png,stimsday2details/couple20.png,stimsday2details/newperson31.png,stimsday2details/gift20.png,stimsday2details/new31.png,stimsday2details/cn20.png,stimsday2details/n20.png,stimsday2details/t20.png,stimsday2details/ct20.png,0,6,6,6,,,,,0,0,0,0,,,,,,,,,,,,,,,,,,,,,,,898.2886355730002,None,,,,,,,,,,,,,,,,,,,,,,,,,,,,,,,,,,,,,,,,,,,,,,,,,,,,,,,,,,,,,,,,,,,,,,,,,,,,,,,,,,,,,,,,,,,001,18,2019_Sep_27_0918,viewing,3.1.2,60.01342332248645,
north.png,stims/wedding-20.1a.mp4,stims/wedding-20.1b.mp4,stims/wedding-20.2a.mp4,stims/wedding-20.3a.mp4,stims/wedding-20.4a.mp4,stims/wedding-20.5.mp4,stimsday2details/egg20.png,stimsday2details/newegg16.png,stimsday2details/couple20.png,stimsday2details/newperson31.png,stimsday2details/gift20.png,stimsday2details/new31.png,stimsday2details/cn20.png,stimsday2details/n20.png,stimsday2details/t20.png,stimsday2details/ct20.png,0,6,6,6,,,,,,,,,0,0,0,0,,,,,,,,,,,,,,,,,,,,,2.7760120500001904,None,908.2742784749998,933.4382510609998,933.4549216219998,None,942.454750456,959.4379351849998,959.4546047180002,982.454314269,982.454314269,1006.4540142619999,1006.4540142619999,None,,,,,,,,,,,,,,,,,,,,,,,,,,,,,,,,,,,,,,,,,,,,,,,,,,,,,,,,,,,,,,,,,,,,,,,,,,,,,001,18,2019_Sep_27_0918,viewing,3.1.2,60.01342332248645,
north.png,stims/wedding-20.1a.mp4,stims/wedding-20.1b.mp4,stims/wedding-20.2a.mp4,stims/wedding-20.3a.mp4,stims/wedding-20.4a.mp4,stims/wedding-20.5.mp4,stimsday2details/egg20.png,stimsday2details/newegg16.png,stimsday2details/couple20.png,stimsday2details/newperson31.png,stimsday2details/gift20.png,stimsday2details/new31.png,stimsday2details/cn20.png,stimsday2details/n20.png,stimsday2details/t20.png,stimsday2details/ct20.png,0,6,6,6,,,,,,,,,,,,,0,0,0,0,,,,,,,,,,,,,,,,,,,,,,,,,,,,,,,None,None,None,None,None,None,None,None,None,None,None,None,None,None,None,None,None,None,None,,None,None,None,,None,None,,,,,,,,,,,,,,,,,,,,,,,,,,,,,,,,,,,,,,,,,,,,,,,,,,,001,18,2019_Sep_27_0918,viewing,3.1.2,60.01342332248645,
north.png,stims/wedding-20.1a.mp4,stims/wedding-20.1b.mp4,stims/wedding-20.2a.mp4,stims/wedding-20.3a.mp4,stims/wedding-20.4a.mp4,stims/wedding-20.5.mp4,stimsday2details/egg20.png,stimsday2details/newegg16.png,stimsday2details/couple20.png,stimsday2details/newperson31.png,stimsday2details/gift20.png,stimsday2details/new31.png,stimsday2details/cn20.png,stimsday2details/n20.png,stimsday2details/t20.png,stimsday2details/ct20.png,0,6,6,6,,,,,,,,,,,,,,,,,,,,,,,,,,,,,,,,,,,,,,,,,,,,,,,,,,,,,,,,,,,,,,,,,,,,,,,,,5.282800020722789e-05,None,2,1.1517594420001842,1029.187141846,None,1029.187141846,None,1029.187141846,None,1031.187042222,None,1,0.7017638089996581,1031.187042222,None,1031.187042222,None,1033.187020082,None,1033.187020082,None,1,0.7850967760000458,1033.187020082,None,1,1.1184211380000306,1035.1869911059998,None,1035.1869911059998,None,1035.1869911059998,None,1037.1869698280002,None,1037.1869698280002,None,1,0.585403617999873,1037.1869698280002,None,1039.1869367680001,None,1039.1869367680001,None,1,0.5689237950000461,1039.1869367680001,None,001,18,2019_Sep_27_0918,viewing,3.1.2,60.01342332248645,
south.png,stims/wedding-2.1a.mp4,stims/wedding-2.1b.mp4,stims/wedding-2.2a.mp4,stims/wedding-2.3b.mp4,stims/wedding-2.4a.mp4,stims/wedding-2.5.mp4,stimsday2details/egg2.png,stimsday2details/newegg17.png,stimsday2details/couple2.png,stimsday2details/newperson32.png,stimsday2details/new32.png,stimsday2details/gift2.png,stimsday2details/cn2.png,stimsday2details/n2.png,stimsday2details/ct2.png,stimsday2details/t2.png,0,7,7,7,0,0,0,0,,,,,,,,,,,,,,,,,,,,,,,,,1041.1869130609998,None,,,,,,,,,,,,,,,,,,,,,,,,,,,,,,,,,,,,,,,,,,,,,,,,,,,,,,,,,,,,,,,,,,,,,,,,,,,,,,,,,,,,,,,,,,,,,001,18,2019_Sep_27_0918,viewing,3.1.2,60.01342332248645,
south.png,stims/wedding-2.1a.mp4,stims/wedding-2.1b.mp4,stims/wedding-2.2a.mp4,stims/wedding-2.3b.mp4,stims/wedding-2.4a.mp4,stims/wedding-2.5.mp4,stimsday2details/egg2.png,stimsday2details/newegg17.png,stimsday2details/couple2.png,stimsday2details/newperson32.png,stimsday2details/new32.png,stimsday2details/gift2.png,stimsday2details/cn2.png,stimsday2details/n2.png,stimsday2details/ct2.png,stimsday2details/t2.png,0,7,7,7,,,,,0,0,0,0,,,,,,,,,,,,,,,,,,,,,,,None,None,,,,,,,,,,,,,,,,,,,,,,,,,,,,,,,,,,,,,,,,,,,,,,,,,,,,,,,,,,,,,,,,,,,,,,,,,,,,,,,,,,,,,,,,,,,001,18,2019_Sep_27_0918,viewing,3.1.2,60.01342332248645,
south.png,stims/wedding-2.1a.mp4,stims/wedding-2.1b.mp4,stims/wedding-2.2a.mp4,stims/wedding-2.3b.mp4,stims/wedding-2.4a.mp4,stims/wedding-2.5.mp4,stimsday2details/egg2.png,stimsday2details/newegg17.png,stimsday2details/couple2.png,stimsday2details/newperson32.png,stimsday2details/new32.png,stimsday2details/gift2.png,stimsday2details/cn2.png,stimsday2details/n2.png,stimsday2details/ct2.png,stimsday2details/t2.png,0,7,7,7,,,,,,,,,0,0,0,0,,,,,,,,,,,,,,,,,,,,,2.7770100070001718,None,1051.3201828289998,None,1076.5531413120002,None,1085.553022439,None,1102.5527696180002,1125.5691944720002,1125.5691944720002,None,1149.5522295360001,None,,,,,,,,,,,,,,,,,,,,,,,,,,,,,,,,,,,,,,,,,,,,,,,,,,,,,,,,,,,,,,,,,,,,,,,,,,,,,001,18,2019_Sep_27_0918,viewing,3.1.2,60.01342332248645,
south.png,stims/wedding-2.1a.mp4,stims/wedding-2.1b.mp4,stims/wedding-2.2a.mp4,stims/wedding-2.3b.mp4,stims/wedding-2.4a.mp4,stims/wedding-2.5.mp4,stimsday2details/egg2.png,stimsday2details/newegg17.png,stimsday2details/couple2.png,stimsday2details/newperson32.png,stimsday2details/new32.png,stimsday2details/gift2.png,stimsday2details/cn2.png,stimsday2details/n2.png,stimsday2details/ct2.png,stimsday2details/t2.png,0,7,7,7,,,,,,,,,,,,,0,0,0,0,,,,,,,,,,,,,,,,,,,,,,,,,,,,,,,None,None,None,None,None,None,None,None,None,None,None,None,None,None,None,None,None,None,None,,None,None,None,,None,None,,,,,,,,,,,,,,,,,,,,,,,,,,,,,,,,,,,,,,,,,,,,,,,,,,,001,18,2019_Sep_27_0918,viewing,3.1.2,60.01342332248645,
south.png,stims/wedding-2.1a.mp4,stims/wedding-2.1b.mp4,stims/wedding-2.2a.mp4,stims/wedding-2.3b.mp4,stims/wedding-2.4a.mp4,stims/wedding-2.5.mp4,stimsday2details/egg2.png,stimsday2details/newegg17.png,stimsday2details/couple2.png,stimsday2details/newperson32.png,stimsday2details/new32.png,stimsday2details/gift2.png,stimsday2details/cn2.png,stimsday2details/n2.png,stimsday2details/ct2.png,stimsday2details/t2.png,0,7,7,7,,,,,,,,,,,,,,,,,,,,,,,,,,,,,,,,,,,,,,,,,,,,,,,,,,,,,,,,,,,,,,,,,,,,,,,,,4.6888999804650666e-05,None,2,0.9690538439999727,1173.535254727,None,1173.535254727,None,1173.535254727,None,1175.518491375,None,1,1.0354534399998556,1175.518491375,None,1175.518491375,None,1177.518533001,None,1177.518533001,None,2,1.0519578100002036,1177.518533001,None,2,1.919475816999693,1179.5184484380002,None,1179.5184484380002,None,1179.5184484380002,None,1181.5184547079998,None,1181.5184547079998,None,2,0.9030582450000111,1181.5184547079998,None,1183.5184075799998,None,1183.5184075799998,None,1,1.720048653000049,1183.5184075799998,None,001,18,2019_Sep_27_0918,viewing,3.1.2,60.01342332248645,
south.png,stims/wedding-38.1a.mp4,stims/wedding-38.1b.mp4,stims/wedding-38.2b.mp4,stims/wedding-38.3a.mp4,stims/wedding-38.4b.mp4,stims/wedding-38.5.mp4,stimsday2details/newpainting16.png,stimsday2details/painting38.png,stimsday2details/couple38.png,stimsday2details/newperson33.png,stimsday2details/gift38.png,stimsday2details/new33.png,stimsday2details/cn38.png,stimsday2details/n38.png,stimsday2details/ct38.png,stimsday2details/t38.png,0,8,8,8,0,0,0,0,,,,,,,,,,,,,,,,,,,,,,,,,1185.518394018,None,,,,,,,,,,,,,,,,,,,,,,,,,,,,,,,,,,,,,,,,,,,,,,,,,,,,,,,,,,,,,,,,,,,,,,,,,,,,,,,,,,,,,,,,,,,,,001,18,2019_Sep_27_0918,viewing,3.1.2,60.01342332248645,
south.png,stims/wedding-38.1a.mp4,stims/wedding-38.1b.mp4,stims/wedding-38.2b.mp4,stims/wedding-38.3a.mp4,stims/wedding-38.4b.mp4,stims/wedding-38.5.mp4,stimsday2details/newpainting16.png,stimsday2details/painting38.png,stimsday2details/couple38.png,stimsday2details/newperson33.png,stimsday2details/gift38.png,stimsday2details/new33.png,stimsday2details/cn38.png,stimsday2details/n38.png,stimsday2details/ct38.png,stimsday2details/t38.png,0,8,8,8,,,,,0,0,0,0,,,,,,,,,,,,,,,,,,,,,,,None,None,,,,,,,,,,,,,,,,,,,,,,,,,,,,,,,,,,,,,,,,,,,,,,,,,,,,,,,,,,,,,,,,,,,,,,,,,,,,,,,,,,,,,,,,,,,001,18,2019_Sep_27_0918,viewing,3.1.2,60.01342332248645,
south.png,stims/wedding-38.1a.mp4,stims/wedding-38.1b.mp4,stims/wedding-38.2b.mp4,stims/wedding-38.3a.mp4,stims/wedding-38.4b.mp4,stims/wedding-38.5.mp4,stimsday2details/newpainting16.png,stimsday2details/painting38.png,stimsday2details/couple38.png,stimsday2details/newperson33.png,stimsday2details/gift38.png,stimsday2details/new33.png,stimsday2details/cn38.png,stimsday2details/n38.png,stimsday2details/ct38.png,stimsday2details/t38.png,0,8,8,8,,,,,,,,,0,0,0,0,,,,,,,,,,,,,,,,,,,,,2.7855668249999326,None,1195.7017188710001,1220.9180040400001,1220.9346735660001,None,1229.9345012170002,None,1246.9343454720001,1269.917448967,1269.933999363,None,1293.9337618099999,None,,,,,,,,,,,,,,,,,,,,,,,,,,,,,,,,,,,,,,,,,,,,,,,,,,,,,,,,,,,,,,,,,,,,,,,,,,,,,001,18,2019_Sep_27_0918,viewing,3.1.2,60.01342332248645,
south.png,stims/wedding-38.1a.mp4,stims/wedding-38.1b.mp4,stims/wedding-38.2b.mp4,stims/wedding-38.3a.mp4,stims/wedding-38.4b.mp4,stims/wedding-38.5.mp4,stimsday2details/newpainting16.png,stimsday2details/painting38.png,stimsday2details/couple38.png,stimsday2details/newperson33.png,stimsday2details/gift38.png,stimsday2details/new33.png,stimsday2details/cn38.png,stimsday2details/n38.png,stimsday2details/ct38.png,stimsday2details/t38.png,0,8,8,8,,,,,,,,,,,,,0,0,0,0,,,,,,,,,,,,,,,,,,,,,,,,,,,,,,,None,None,None,None,None,None,None,None,None,None,None,None,None,None,None,None,None,None,None,,None,None,None,,None,None,,,,,,,,,,,,,,,,,,,,,,,,,,,,,,,,,,,,,,,,,,,,,,,,,,,001,18,2019_Sep_27_0918,viewing,3.1.2,60.01342332248645,
south.png,stims/wedding-38.1a.mp4,stims/wedding-38.1b.mp4,stims/wedding-38.2b.mp4,stims/wedding-38.3a.mp4,stims/wedding-38.4b.mp4,stims/wedding-38.5.mp4,stimsday2details/newpainting16.png,stimsday2details/painting38.png,stimsday2details/couple38.png,stimsday2details/newperson33.png,stimsday2details/gift38.png,stimsday2details/new33.png,stimsday2details/cn38.png,stimsday2details/n38.png,stimsday2details/ct38.png,stimsday2details/t38.png,0,8,8,8,,,,,,,,,,,,,,,,,,,,,,,,,,,,,,,,,,,,,,,,,,,,,,,,,,,,,,,,,,,,,,,,,,,,,,,,,2.5222999738616636e-05,None,2,1.1362875979998535,1318.083489232,None,1318.083489232,None,1318.083489232,None,1320.0667632720001,None,2,0.6669514760001221,1320.0667632720001,None,1320.0667632720001,None,1322.0667442919998,None,1322.0667442919998,None,1,1.2864562939998905,1322.0667442919998,None,1,1.669535216999975,1324.0667214619998,None,1324.0667214619998,None,1324.0667214619998,None,1326.066627665,None,1326.066627665,None,1,1.0867847489998894,1326.066627665,None,1328.066668201,None,1328.066668201,None,2,1.8863719999999375,1328.066668201,None,001,18,2019_Sep_27_0918,viewing,3.1.2,60.01342332248645,
north.png,stims/wedding-1.1a.mp4,stims/wedding-1.1b.mp4,stims/wedding-1.2b.mp4,stims/wedding-1.3b.mp4,stims/wedding-1.4b.mp4,stims/wedding-1.5.mp4,stimsday2details/painting1.png,stimsday2details/newpainting17.png,stimsday2details/couple1.png,stimsday2details/newperson34.png,stimsday2details/new34.png,stimsday2details/gift1.png,stimsday2details/cn1.png,stimsday2details/n1.png,stimsday2details/t1.png,stimsday2details/ct1.png,0,9,9,9,0,0,0,0,,,,,,,,,,,,,,,,,,,,,,,,,None,None,,,,,,,,,,,,,,,,,,,,,,,,,,,,,,,,,,,,,,,,,,,,,,,,,,,,,,,,,,,,,,,,,,,,,,,,,,,,,,,,,,,,,,,,,,,,,001,18,2019_Sep_27_0918,viewing,3.1.2,60.01342332248645,
north.png,stims/wedding-1.1a.mp4,stims/wedding-1.1b.mp4,stims/wedding-1.2b.mp4,stims/wedding-1.3b.mp4,stims/wedding-1.4b.mp4,stims/wedding-1.5.mp4,stimsday2details/painting1.png,stimsday2details/newpainting17.png,stimsday2details/couple1.png,stimsday2details/newperson34.png,stimsday2details/new34.png,stimsday2details/gift1.png,stimsday2details/cn1.png,stimsday2details/n1.png,stimsday2details/t1.png,stimsday2details/ct1.png,0,9,9,9,,,,,0,0,0,0,,,,,,,,,,,,,,,,,,,,,,,1330.2832474020001,None,,,,,,,,,,,,,,,,,,,,,,,,,,,,,,,,,,,,,,,,,,,,,,,,,,,,,,,,,,,,,,,,,,,,,,,,,,,,,,,,,,,,,,,,,,,001,18,2019_Sep_27_0918,viewing,3.1.2,60.01342332248645,
north.png,stims/wedding-1.1a.mp4,stims/wedding-1.1b.mp4,stims/wedding-1.2b.mp4,stims/wedding-1.3b.mp4,stims/wedding-1.4b.mp4,stims/wedding-1.5.mp4,stimsday2details/painting1.png,stimsday2details/newpainting17.png,stimsday2details/couple1.png,stimsday2details/newperson34.png,stimsday2details/new34.png,stimsday2details/gift1.png,stimsday2details/cn1.png,stimsday2details/n1.png,stimsday2details/t1.png,stimsday2details/ct1.png,0,9,9,9,,,,,,,,,0,0,0,0,,,,,,,,,,,,,,,,,,,,,2.8150707119998515,None,1340.316520854,1365.49953744,1365.516202443,None,1374.5160256049999,None,1391.515886318,1414.49891923,1414.515591753,1438.498560008,1438.515288687,None,,,,,,,,,,,,,,,,,,,,,,,,,,,,,,,,,,,,,,,,,,,,,,,,,,,,,,,,,,,,,,,,,,,,,,,,,,,,,001,18,2019_Sep_27_0918,viewing,3.1.2,60.01342332248645,
north.png,stims/wedding-1.1a.mp4,stims/wedding-1.1b.mp4,stims/wedding-1.2b.mp4,stims/wedding-1.3b.mp4,stims/wedding-1.4b.mp4,stims/wedding-1.5.mp4,stimsday2details/painting1.png,stimsday2details/newpainting17.png,stimsday2details/couple1.png,stimsday2details/newperson34.png,stimsday2details/new34.png,stimsday2details/gift1.png,stimsday2details/cn1.png,stimsday2details/n1.png,stimsday2details/t1.png,stimsday2details/ct1.png,0,9,9,9,,,,,,,,,,,,,0,0,0,0,,,,,,,,,,,,,,,,,,,,,,,,,,,,,,,None,None,None,None,None,None,None,None,None,None,None,None,None,None,None,None,None,None,None,,None,None,None,,None,None,,,,,,,,,,,,,,,,,,,,,,,,,,,,,,,,,,,,,,,,,,,,,,,,,,,001,18,2019_Sep_27_0918,viewing,3.1.2,60.01342332248645,
north.png,stims/wedding-1.1a.mp4,stims/wedding-1.1b.mp4,stims/wedding-1.2b.mp4,stims/wedding-1.3b.mp4,stims/wedding-1.4b.mp4,stims/wedding-1.5.mp4,stimsday2details/painting1.png,stimsday2details/newpainting17.png,stimsday2details/couple1.png,stimsday2details/newperson34.png,stimsday2details/new34.png,stimsday2details/gift1.png,stimsday2details/cn1.png,stimsday2details/n1.png,stimsday2details/t1.png,stimsday2details/ct1.png,0,9,9,9,,,,,,,,,,,,,,,,,,,,,,,,,,,,,,,,,,,,,,,,,,,,,,,,,,,,,,,,,,,,,,,,,,,,,,,,,4.564700020637247e-05,None,2,1.05300545099999,1462.264993591,None,1462.264993591,None,1462.264993591,None,1464.2649636810002,None,1,0.8529050339998321,1464.2649636810002,None,1464.2649636810002,None,1466.2649566660002,None,1466.2649566660002,None,1,0.9698233320000327,1466.2649566660002,None,1,1.8035550370000237,1468.264914032,None,1468.264914032,None,1468.264914032,None,1470.2648940620002,None,1470.2648940620002,None,2,0.8365094410000893,1470.2648940620002,None,1472.264867713,None,1472.264867713,None,1,1.3697110430002795,1472.264867713,None,001,18,2019_Sep_27_0918,viewing,3.1.2,60.01342332248645,
north.png,stims/wedding-6.1a.mp4,stims/wedding-6.1b.mp4,stims/wedding-6.2a.mp4,stims/wedding-6.3a.mp4,stims/wedding-6.4a.mp4,stims/wedding-6.5.mp4,stimsday2details/egg6.png,stimsday2details/newegg18.png,stimsday2details/newperson35.png,stimsday2details/couple6.png,stimsday2details/gift6.png,stimsday2details/new35.png,stimsday2details/cn6.png,stimsday2details/n6.png,stimsday2details/ct6.png,stimsday2details/t6.png,0,10,10,10,0,0,0,0,,,,,,,,,,,,,,,,,,,,,,,,,None,None,,,,,,,,,,,,,,,,,,,,,,,,,,,,,,,,,,,,,,,,,,,,,,,,,,,,,,,,,,,,,,,,,,,,,,,,,,,,,,,,,,,,,,,,,,,,,001,18,2019_Sep_27_0918,viewing,3.1.2,60.01342332248645,
north.png,stims/wedding-6.1a.mp4,stims/wedding-6.1b.mp4,stims/wedding-6.2a.mp4,stims/wedding-6.3a.mp4,stims/wedding-6.4a.mp4,stims/wedding-6.5.mp4,stimsday2details/egg6.png,stimsday2details/newegg18.png,stimsday2details/newperson35.png,stimsday2details/couple6.png,stimsday2details/gift6.png,stimsday2details/new35.png,stimsday2details/cn6.png,stimsday2details/n6.png,stimsday2details/ct6.png,stimsday2details/t6.png,0,10,10,10,,,,,0,0,0,0,,,,,,,,,,,,,,,,,,,,,,,1474.514838605,None,,,,,,,,,,,,,,,,,,,,,,,,,,,,,,,,,,,,,,,,,,,,,,,,,,,,,,,,,,,,,,,,,,,,,,,,,,,,,,,,,,,,,,,,,,,001,18,2019_Sep_27_0918,viewing,3.1.2,60.01342332248645,
north.png,stims/wedding-6.1a.mp4,stims/wedding-6.1b.mp4,stims/wedding-6.2a.mp4,stims/wedding-6.3a.mp4,stims/wedding-6.4a.mp4,stims/wedding-6.5.mp4,stimsday2details/egg6.png,stimsday2details/newegg18.png,stimsday2details/newperson35.png,stimsday2details/couple6.png,stimsday2details/gift6.png,stimsday2details/new35.png,stimsday2details/cn6.png,stimsday2details/n6.png,stimsday2details/ct6.png,stimsday2details/t6.png,0,10,10,10,,,,,,,,,0,0,0,0,,,,,,,,,,,,,,,,,,,,,2.912931605000267,None,1484.681380981,1509.7643421060002,1509.7810043539998,None,1518.780933095,1535.764040994,1535.780730563,1558.763780547,1558.7804521060002,1582.76347907,1582.780113879,None,,,,,,,,,,,,,,,,,,,,,,,,,,,,,,,,,,,,,,,,,,,,,,,,,,,,,,,,,,,,,,,,,,,,,,,,,,,,,001,18,2019_Sep_27_0918,viewing,3.1.2,60.01342332248645,
north.png,stims/wedding-6.1a.mp4,stims/wedding-6.1b.mp4,stims/wedding-6.2a.mp4,stims/wedding-6.3a.mp4,stims/wedding-6.4a.mp4,stims/wedding-6.5.mp4,stimsday2details/egg6.png,stimsday2details/newegg18.png,stimsday2details/newperson35.png,stimsday2details/couple6.png,stimsday2details/gift6.png,stimsday2details/new35.png,stimsday2details/cn6.png,stimsday2details/n6.png,stimsday2details/ct6.png,stimsday2details/t6.png,0,10,10,10,,,,,,,,,,,,,0,0,0,0,,,,,,,,,,,,,,,,,,,,,,,,,,,,,,,None,None,None,None,None,None,None,None,None,None,None,None,None,None,None,None,None,None,None,,None,None,None,,None,None,,,,,,,,,,,,,,,,,,,,,,,,,,,,,,,,,,,,,,,,,,,,,,,,,,,001,18,2019_Sep_27_0918,viewing,3.1.2,60.01342332248645,
north.png,stims/wedding-6.1a.mp4,stims/wedding-6.1b.mp4,stims/wedding-6.2a.mp4,stims/wedding-6.3a.mp4,stims/wedding-6.4a.mp4,stims/wedding-6.5.mp4,stimsday2details/egg6.png,stimsday2details/newegg18.png,stimsday2details/newperson35.png,stimsday2details/couple6.png,stimsday2details/gift6.png,stimsday2details/new35.png,stimsday2details/cn6.png,stimsday2details/n6.png,stimsday2details/ct6.png,stimsday2details/t6.png,0,10,10,10,,,,,,,,,,,,,,,,,,,,,,,,,,,,,,,,,,,,,,,,,,,,,,,,,,,,,,,,,,,,,,,,,,,,,,,,,2.6701000024331734e-05,None,3,1.101983227999881,1606.979912936,None,1606.979912936,None,1606.979912936,None,1608.9631595749997,None,2,0.7020877079994534,1608.9631595749997,None,1608.9631595749997,None,1610.9631294370001,None,1610.9631294370001,None,3,1.335062485999515,1610.9631294370001,None,3,1.3185593700000027,1612.9631107200003,None,1612.9631107200003,None,1612.9631107200003,None,1614.963081758,None,1614.963081758,None,2,0.7022340180001265,1614.963081758,None,1616.963059963,None,1616.963059963,None,None,,1616.963059963,None,001,18,2019_Sep_27_0918,viewing,3.1.2,60.01342332248645,
south.png,stims/wedding-23.1a.mp4,stims/wedding-23.1b.mp4,stims/wedding-23.2b.mp4,stims/wedding-23.3a.mp4,stims/wedding-23.4b.mp4,stims/wedding-23.5.mp4,stimsday2details/newpainting18.png,stimsday2details/painting23.png,stimsday2details/couple23.png,stimsday2details/newperson36.png,stimsday2details/gift23.png,stimsday2details/new36.png,stimsday2details/cn23.png,stimsday2details/n23.png,stimsday2details/t23.png,stimsday2details/ct23.png,0,11,11,11,0,0,0,0,,,,,,,,,,,,,,,,,,,,,,,,,1618.9630276569997,None,,,,,,,,,,,,,,,,,,,,,,,,,,,,,,,,,,,,,,,,,,,,,,,,,,,,,,,,,,,,,,,,,,,,,,,,,,,,,,,,,,,,,,,,,,,,,001,18,2019_Sep_27_0918,viewing,3.1.2,60.01342332248645,
south.png,stims/wedding-23.1a.mp4,stims/wedding-23.1b.mp4,stims/wedding-23.2b.mp4,stims/wedding-23.3a.mp4,stims/wedding-23.4b.mp4,stims/wedding-23.5.mp4,stimsday2details/newpainting18.png,stimsday2details/painting23.png,stimsday2details/couple23.png,stimsday2details/newperson36.png,stimsday2details/gift23.png,stimsday2details/new36.png,stimsday2details/cn23.png,stimsday2details/n23.png,stimsday2details/t23.png,stimsday2details/ct23.png,0,11,11,11,,,,,0,0,0,0,,,,,,,,,,,,,,,,,,,,,,,None,None,,,,,,,,,,,,,,,,,,,,,,,,,,,,,,,,,,,,,,,,,,,,,,,,,,,,,,,,,,,,,,,,,,,,,,,,,,,,,,,,,,,,,,,,,,,001,18,2019_Sep_27_0918,viewing,3.1.2,60.01342332248645,
south.png,stims/wedding-23.1a.mp4,stims/wedding-23.1b.mp4,stims/wedding-23.2b.mp4,stims/wedding-23.3a.mp4,stims/wedding-23.4b.mp4,stims/wedding-23.5.mp4,stimsday2details/newpainting18.png,stimsday2details/painting23.png,stimsday2details/couple23.png,stimsday2details/newperson36.png,stimsday2details/gift23.png,stimsday2details/new36.png,stimsday2details/cn23.png,stimsday2details/n23.png,stimsday2details/t23.png,stimsday2details/ct23.png,0,11,11,11,,,,,,,,,0,0,0,0,,,,,,,,,,,,,,,,,,,,,None,None,None,None,None,None,None,None,None,None,None,None,None,None,,,,,,,,,,,,,,,,,,,,,,,,,,,,,,,,,,,,,,,,,,,,,,,,,,,,,,,,,,,,,,,,,,,,,,,,,,,,,001,18,2019_Sep_27_0918,viewing,3.1.2,60.01342332248645,
south.png,stims/wedding-23.1a.mp4,stims/wedding-23.1b.mp4,stims/wedding-23.2b.mp4,stims/wedding-23.3a.mp4,stims/wedding-23.4b.mp4,stims/wedding-23.5.mp4,stimsday2details/newpainting18.png,stimsday2details/painting23.png,stimsday2details/couple23.png,stimsday2details/newperson36.png,stimsday2details/gift23.png,stimsday2details/new36.png,stimsday2details/cn23.png,stimsday2details/n23.png,stimsday2details/t23.png,stimsday2details/ct23.png,0,11,11,11,,,,,,,,,,,,,0,0,0,0,,,,,,,,,,,,,,,,,,,,,,,,,,,,,,,2.812972257999718,None,1632.4462050109996,1657.6458212389998,1657.6458212389998,None,1666.645767942,None,1683.6455568089996,1687.645505077,1687.645505077,1710.6451985490003,1710.6451985490003,1714.6451678470003,1714.6451678470003,None,1738.6448674679996,None,"['2', '2', '2', '2']","[3.1519262920000983, 3.668477336000251, 4.468863546000648, 4.9351183600001605]",1682.6455491349998,1687.645505077,"['3', '3']","[2.451676931000293, 4.968419530000574]",1709.6452370529996,1714.6451678470003,,,,,,,,,,,,,,,,,,,,,,,,,,,,,,,,,,,,,,,,,,,,,,,,,,,001,18,2019_Sep_27_0918,viewing,3.1.2,60.01342332248645,
south.png,stims/wedding-23.1a.mp4,stims/wedding-23.1b.mp4,stims/wedding-23.2b.mp4,stims/wedding-23.3a.mp4,stims/wedding-23.4b.mp4,stims/wedding-23.5.mp4,stimsday2details/newpainting18.png,stimsday2details/painting23.png,stimsday2details/couple23.png,stimsday2details/newperson36.png,stimsday2details/gift23.png,stimsday2details/new36.png,stimsday2details/cn23.png,stimsday2details/n23.png,stimsday2details/t23.png,stimsday2details/ct23.png,0,11,11,11,,,,,,,,,,,,,,,,,,,,,,,,,,,,,,,,,,,,,,,,,,,,,,,,,,,,,,,,,,,,,,,,,,,,,,,,,3.653699968708679e-05,None,3,1.0852753920007672,1760.011326629,None,1760.011326629,None,1760.011326629,None,1761.9945752129997,None,3,1.2851512349998302,1761.9945752129997,None,1761.9945752129997,None,1763.9945435660002,None,1763.9945435660002,None,2,1.1519360619995496,1763.9945435660002,None,3,1.3850752270000157,1765.994528997,None,1765.994528997,None,1765.994528997,None,1767.9944979869997,None,1767.9944979869997,None,2,1.1687006440006371,1767.9944979869997,None,1769.9944742400003,None,1769.9944742400003,None,3,1.1851485320003121,1769.9944742400003,None,001,18,2019_Sep_27_0918,viewing,3.1.2,60.01342332248645,
