northOrSouth,stimFile1a,stimFile1b,stimFile2,stimFile3,stimFile4,stimFile5,Qeggpainting1,Qeggpainting2,Qcharacter1,Qcharacter2,Qgift1,Qgift2,Qname1,Qname2,Qtheme1,Qtheme2,trials.thisRepN,trials.thisTrialN,trials.thisN,trials.thisIndex,South.thisRepN,South.thisTrialN,South.thisN,South.thisIndex,North.thisRepN,North.thisTrialN,North.thisN,North.thisIndex,noQtrials.thisRepN,noQtrials.thisTrialN,noQtrials.thisN,noQtrials.thisIndex,Qtrials.thisRepN,Qtrials.thisTrialN,Qtrials.thisN,Qtrials.thisIndex,text.started,text.stopped,prep_trigger.keys,prep_trigger.rt,prep_trigger.started,prep_trigger.stopped,waiting.started,waiting.stopped,trigger.keys,trigger.rt,trigger.started,trigger.stopped,southCueImage.started,southCueImage.stopped,northCueImage.started,northCueImage.stopped,trialNoQs.started,trialNoQs.stopped,vid1a.started,vid1a.stopped,vid1b.started,vid1b.stopped,vid2.started,vid2.stopped,vid3.started,vid3.stopped,vid4.started,vid4.stopped,vid5.started,vid5.stopped,ISI2.started,ISI2.stopped,vid1a_q.started,vid1a_q.stopped,vid1b_q.started,vid1b_q.stopped,vid2_q.started,vid2_q.stopped,l2q.started,l2q.stopped,vid3_q.started,vid3_q.stopped,l3q.started,l3q.stopped,vid4_q.started,vid4_q.stopped,vid5_q.started,vid5_q.stopped,key_resp_2.keys,key_resp_2.rt,key_resp_2.started,key_resp_2.stopped,key_resp_3.keys,key_resp_3.rt,key_resp_3.started,key_resp_3.stopped,ISI7.started,ISI7.stopped,nameQresp.keys,nameQresp.rt,nameQresp.started,nameQresp.stopped,nameQ1.started,nameQ1.stopped,nameQ2.started,nameQ2.stopped,eggPainting1.started,eggPainting1.stopped,eggPaintingQresp.keys,eggPaintingQresp.rt,eggPaintingQresp.started,eggPaintingQresp.stopped,eggPainting2.started,eggPainting2.stopped,character1.started,character1.stopped,character2.started,character2.stopped,Qcharacter.keys,Qcharacter.rt,Qcharacter.started,Qcharacter.stopped,themeQresp.keys,themeQresp.rt,themeQresp.started,themeQresp.stopped,themeQ1.started,themeQ1.stopped,themeQ2.started,themeQ2.stopped,gift1.started,gift1.stopped,gift2.started,gift2.stopped,giftQresp.keys,giftQresp.rt,giftQresp.started,giftQresp.stopped,northorsouth1.started,northorsouth1.stopped,northorsouth2.started,northorsouth2.stopped,northOrSouthQ.keys,northOrSouthQ.rt,northOrSouthQ.started,northOrSouthQ.stopped,session,participant,date,expName,psychopyVersion,frameRate,
,,,,,,,,,,,,,,,,,,,,,,,,,,,,,,,,,,,,,5.520981543697417,None,g,0.8874854324385524,5.520981543697417,None,,,,,,,,,,,,,,,,,,,,,,,,,,,,,,,,,,,,,,,,,,,,,,,,,,,,,,,,,,,,,,,,,,,,,,,,,,,,,,,,,,,,,,,,,,,,,,,,,,,,,001,41,2020_Jan_22_1339,viewing,3.1.2,60.06243755381782,
,,,,,,,,,,,,,,,,,,,,,,,,,,,,,,,,,,,,,,,,,,,6.420979164540768,None,equal,16.952207800000906,6.420979164540768,None,,,,,,,,,,,,,,,,,,,,,,,,,,,,,,,,,,,,,,,,,,,,,,,,,,,,,,,,,,,,,,,,,,,,,,,,,,,,,,,,,,,,,,,,,,,,,,,001,41,2020_Jan_22_1339,viewing,3.1.2,60.06243755381782,
south.png,stims/wedding-17.1a.mp4,stims/wedding-17.1b.mp4,stims/wedding-17.2a.mp4,stims/wedding-17.3b.mp4,stims/wedding-17.4a.mp4,stims/wedding-17.5.mp4,stimsday2details/egg17.png,stimsday2details/newegg13.png,stimsday2details/couple17.png,stimsday2details/newperson25.png,stimsday2details/new25.png,stimsday2details/gift17.png,stimsday2details/n17.png,stimsday2details/cn17.png,stimsday2details/t17.png,stimsday2details/ct17.png,0,0,0,0,0,0,0,0,,,,,,,,,,,,,,,,,,,,,,,,,23.40472857747227,None,,,,,,,,,,,,,,,,,,,,,,,,,,,,,,,,,,,,,,,,,,,,,,,,,,,,,,,,,,,,,,,,,,,,,,,,,,,,,,,,,,,,,,,,,,,,,001,41,2020_Jan_22_1339,viewing,3.1.2,60.06243755381782,
south.png,stims/wedding-17.1a.mp4,stims/wedding-17.1b.mp4,stims/wedding-17.2a.mp4,stims/wedding-17.3b.mp4,stims/wedding-17.4a.mp4,stims/wedding-17.5.mp4,stimsday2details/egg17.png,stimsday2details/newegg13.png,stimsday2details/couple17.png,stimsday2details/newperson25.png,stimsday2details/new25.png,stimsday2details/gift17.png,stimsday2details/n17.png,stimsday2details/cn17.png,stimsday2details/t17.png,stimsday2details/ct17.png,0,0,0,0,,,,,0,0,0,0,,,,,,,,,,,,,,,,,,,,,,,None,None,,,,,,,,,,,,,,,,,,,,,,,,,,,,,,,,,,,,,,,,,,,,,,,,,,,,,,,,,,,,,,,,,,,,,,,,,,,,,,,,,,,,,,,,,,,001,41,2020_Jan_22_1339,viewing,3.1.2,60.06243755381782,
south.png,stims/wedding-17.1a.mp4,stims/wedding-17.1b.mp4,stims/wedding-17.2a.mp4,stims/wedding-17.3b.mp4,stims/wedding-17.4a.mp4,stims/wedding-17.5.mp4,stimsday2details/egg17.png,stimsday2details/newegg13.png,stimsday2details/couple17.png,stimsday2details/newperson25.png,stimsday2details/new25.png,stimsday2details/gift17.png,stimsday2details/n17.png,stimsday2details/cn17.png,stimsday2details/t17.png,stimsday2details/ct17.png,0,0,0,0,,,,,,,,,0,0,0,0,,,,,,,,,,,,,,,,,,,,,None,None,None,None,None,None,None,None,None,None,None,None,None,None,,,,,,,,,,,,,,,,,,,,,,,,,,,,,,,,,,,,,,,,,,,,,,,,,,,,,,,,,,,,,,,,,,,,,,,,,,,,,001,41,2020_Jan_22_1339,viewing,3.1.2,60.06243755381782,
south.png,stims/wedding-17.1a.mp4,stims/wedding-17.1b.mp4,stims/wedding-17.2a.mp4,stims/wedding-17.3b.mp4,stims/wedding-17.4a.mp4,stims/wedding-17.5.mp4,stimsday2details/egg17.png,stimsday2details/newegg13.png,stimsday2details/couple17.png,stimsday2details/newperson25.png,stimsday2details/new25.png,stimsday2details/gift17.png,stimsday2details/n17.png,stimsday2details/cn17.png,stimsday2details/t17.png,stimsday2details/ct17.png,0,0,0,0,,,,,,,,,,,,,0,0,0,0,,,,,,,,,,,,,,,,,,,,,,,,,,,,,,,2.837285950779915,None,36.45394399110228,None,61.620298996567726,None,70.62018736451864,87.60330711863935,87.61997616570443,91.60344043467194,91.61992769222707,114.60299349017441,114.61979268305004,118.60291276592761,118.61952804680914,None,142.6193314762786,None,"['2', '2']","[55.19715239945799, 3.519011185504496]",86.65331741794944,91.60344043467194,['2'],[2.7695301342755556],113.61983162537217,118.60291276592761,,,,,,,,,,,,,,,,,,,,,,,,,,,,,,,,,,,,,,,,,,,,,,,,,,,001,41,2020_Jan_22_1339,viewing,3.1.2,60.06243755381782,
south.png,stims/wedding-17.1a.mp4,stims/wedding-17.1b.mp4,stims/wedding-17.2a.mp4,stims/wedding-17.3b.mp4,stims/wedding-17.4a.mp4,stims/wedding-17.5.mp4,stimsday2details/egg17.png,stimsday2details/newegg13.png,stimsday2details/couple17.png,stimsday2details/newperson25.png,stimsday2details/new25.png,stimsday2details/gift17.png,stimsday2details/n17.png,stimsday2details/cn17.png,stimsday2details/t17.png,stimsday2details/ct17.png,0,0,0,0,,,,,,,,,,,,,,,,,,,,,,,,,,,,,,,,,,,,,,,,,,,,,,,,,,,,,,,,,,,,,,,,,,,,,,,,,2.4002045392990112e-05,None,1,1.7522077346220613,163.20237436145544,None,163.20237436145544,None,163.20237436145544,None,165.2023448254913,None,1,0.952558540739119,165.2023448254913,None,165.2023448254913,None,167.20225185062736,None,167.20225185062736,None,1,0.9020703136920929,167.20225185062736,None,1,1.7520206356421113,169.20246107317507,None,169.20246107317507,None,169.20246107317507,None,171.2022699220106,None,171.2022699220106,None,2,1.0669373255223036,171.2022699220106,None,173.20240009576082,None,173.20240009576082,None,2,0.6853396147489548,173.20240009576082,None,001,41,2020_Jan_22_1339,viewing,3.1.2,60.06243755381782,
north.png,stims/wedding-6.1a.mp4,stims/wedding-6.1b.mp4,stims/wedding-6.2a.mp4,stims/wedding-6.3a.mp4,stims/wedding-6.4a.mp4,stims/wedding-6.5.mp4,stimsday2details/egg6.png,stimsday2details/newegg14.png,stimsday2details/couple6.png,stimsday2details/newperson26.png,stimsday2details/gift6.png,stimsday2details/new26.png,stimsday2details/n6.png,stimsday2details/cn6.png,stimsday2details/t6.png,stimsday2details/ct6.png,0,1,1,1,0,0,0,0,,,,,,,,,,,,,,,,,,,,,,,,,None,None,,,,,,,,,,,,,,,,,,,,,,,,,,,,,,,,,,,,,,,,,,,,,,,,,,,,,,,,,,,,,,,,,,,,,,,,,,,,,,,,,,,,,,,,,,,,,001,41,2020_Jan_22_1339,viewing,3.1.2,60.06243755381782,
north.png,stims/wedding-6.1a.mp4,stims/wedding-6.1b.mp4,stims/wedding-6.2a.mp4,stims/wedding-6.3a.mp4,stims/wedding-6.4a.mp4,stims/wedding-6.5.mp4,stimsday2details/egg6.png,stimsday2details/newegg14.png,stimsday2details/couple6.png,stimsday2details/newperson26.png,stimsday2details/gift6.png,stimsday2details/new26.png,stimsday2details/n6.png,stimsday2details/cn6.png,stimsday2details/t6.png,stimsday2details/ct6.png,0,1,1,1,,,,,0,0,0,0,,,,,,,,,,,,,,,,,,,,,,,175.25218127761036,None,,,,,,,,,,,,,,,,,,,,,,,,,,,,,,,,,,,,,,,,,,,,,,,,,,,,,,,,,,,,,,,,,,,,,,,,,,,,,,,,,,,,,,,,,,,001,41,2020_Jan_22_1339,viewing,3.1.2,60.06243755381782,
north.png,stims/wedding-6.1a.mp4,stims/wedding-6.1b.mp4,stims/wedding-6.2a.mp4,stims/wedding-6.3a.mp4,stims/wedding-6.4a.mp4,stims/wedding-6.5.mp4,stimsday2details/egg6.png,stimsday2details/newegg14.png,stimsday2details/couple6.png,stimsday2details/newperson26.png,stimsday2details/gift6.png,stimsday2details/new26.png,stimsday2details/n6.png,stimsday2details/cn6.png,stimsday2details/t6.png,stimsday2details/ct6.png,0,1,1,1,,,,,,,,,0,0,0,0,,,,,,,,,,,,,,,,,,,,,2.98925719037652,None,185.30208516214043,210.3017738405615,210.31844235677272,None,219.31833715550601,236.30164398439229,236.31816907972097,259.3011605599895,259.31783221662045,283.3007977940142,283.3175400644541,None,,,,,,,,,,,,,,,,,,,,,,,,,,,,,,,,,,,,,,,,,,,,,,,,,,,,,,,,,,,,,,,,,,,,,,,,,,,,,001,41,2020_Jan_22_1339,viewing,3.1.2,60.06243755381782,
north.png,stims/wedding-6.1a.mp4,stims/wedding-6.1b.mp4,stims/wedding-6.2a.mp4,stims/wedding-6.3a.mp4,stims/wedding-6.4a.mp4,stims/wedding-6.5.mp4,stimsday2details/egg6.png,stimsday2details/newegg14.png,stimsday2details/couple6.png,stimsday2details/newperson26.png,stimsday2details/gift6.png,stimsday2details/new26.png,stimsday2details/n6.png,stimsday2details/cn6.png,stimsday2details/t6.png,stimsday2details/ct6.png,0,1,1,1,,,,,,,,,,,,,0,0,0,0,,,,,,,,,,,,,,,,,,,,,,,,,,,,,,,None,None,None,None,None,None,None,None,None,None,None,None,None,None,None,None,None,None,None,,None,None,None,,None,None,,,,,,,,,,,,,,,,,,,,,,,,,,,,,,,,,,,,,,,,,,,,,,,,,,,001,41,2020_Jan_22_1339,viewing,3.1.2,60.06243755381782,
north.png,stims/wedding-6.1a.mp4,stims/wedding-6.1b.mp4,stims/wedding-6.2a.mp4,stims/wedding-6.3a.mp4,stims/wedding-6.4a.mp4,stims/wedding-6.5.mp4,stimsday2details/egg6.png,stimsday2details/newegg14.png,stimsday2details/couple6.png,stimsday2details/newperson26.png,stimsday2details/gift6.png,stimsday2details/new26.png,stimsday2details/n6.png,stimsday2details/cn6.png,stimsday2details/t6.png,stimsday2details/ct6.png,0,1,1,1,,,,,,,,,,,,,,,,,,,,,,,,,,,,,,,,,,,,,,,,,,,,,,,,,,,,,,,,,,,,,,,,,,,,,,,,,3.427080810070038e-05,None,None,,307.0672460766509,None,307.0672460766509,None,307.0672460766509,None,309.06720900628716,None,1,0.901765407063067,309.06720900628716,None,309.06720900628716,None,311.06718174368143,None,311.06718174368143,None,1,0.7358541553840041,311.06718174368143,None,1,1.4684114381670952,313.0673427954316,None,313.0673427954316,None,313.0673427954316,None,315.0671325176954,None,315.0671325176954,None,1,0.9525710875168443,315.0671325176954,None,317.06710551772267,None,317.06710551772267,None,1,0.6002885298803449,317.06710551772267,None,001,41,2020_Jan_22_1339,viewing,3.1.2,60.06243755381782,
north.png,stims/wedding-22.1a.mp4,stims/wedding-22.1b.mp4,stims/wedding-22.2b.mp4,stims/wedding-22.3b.mp4,stims/wedding-22.4b.mp4,stims/wedding-22.5.mp4,stimsday2details/painting22.png,stimsday2details/newpainting13.png,stimsday2details/couple22.png,stimsday2details/newperson27.png,stimsday2details/gift22.png,stimsday2details/new27.png,stimsday2details/n22.png,stimsday2details/cn22.png,stimsday2details/t22.png,stimsday2details/ct22.png,0,2,2,2,0,0,0,0,,,,,,,,,,,,,,,,,,,,,,,,,None,None,,,,,,,,,,,,,,,,,,,,,,,,,,,,,,,,,,,,,,,,,,,,,,,,,,,,,,,,,,,,,,,,,,,,,,,,,,,,,,,,,,,,,,,,,,,,,001,41,2020_Jan_22_1339,viewing,3.1.2,60.06243755381782,
north.png,stims/wedding-22.1a.mp4,stims/wedding-22.1b.mp4,stims/wedding-22.2b.mp4,stims/wedding-22.3b.mp4,stims/wedding-22.4b.mp4,stims/wedding-22.5.mp4,stimsday2details/painting22.png,stimsday2details/newpainting13.png,stimsday2details/couple22.png,stimsday2details/newperson27.png,stimsday2details/gift22.png,stimsday2details/new27.png,stimsday2details/n22.png,stimsday2details/cn22.png,stimsday2details/t22.png,stimsday2details/ct22.png,0,2,2,2,,,,,0,0,0,0,,,,,,,,,,,,,,,,,,,,,,,319.13376027718186,None,,,,,,,,,,,,,,,,,,,,,,,,,,,,,,,,,,,,,,,,,,,,,,,,,,,,,,,,,,,,,,,,,,,,,,,,,,,,,,,,,,,,,,,,,,,001,41,2020_Jan_22_1339,viewing,3.1.2,60.06243755381782,
north.png,stims/wedding-22.1a.mp4,stims/wedding-22.1b.mp4,stims/wedding-22.2b.mp4,stims/wedding-22.3b.mp4,stims/wedding-22.4b.mp4,stims/wedding-22.5.mp4,stimsday2details/painting22.png,stimsday2details/newpainting13.png,stimsday2details/couple22.png,stimsday2details/newperson27.png,stimsday2details/gift22.png,stimsday2details/new27.png,stimsday2details/n22.png,stimsday2details/cn22.png,stimsday2details/t22.png,stimsday2details/ct22.png,0,2,2,2,,,,,,,,,0,0,0,0,,,,,,,,,,,,,,,,,,,,,3.0277114491909742,None,329.233817121014,354.2166447620839,354.2166447620839,None,363.2166965743527,None,380.2162448037416,403.2159552881494,403.2159552881494,None,427.21573315467685,None,,,,,,,,,,,,,,,,,,,,,,,,,,,,,,,,,,,,,,,,,,,,,,,,,,,,,,,,,,,,,,,,,,,,,,,,,,,,,001,41,2020_Jan_22_1339,viewing,3.1.2,60.06243755381782,
north.png,stims/wedding-22.1a.mp4,stims/wedding-22.1b.mp4,stims/wedding-22.2b.mp4,stims/wedding-22.3b.mp4,stims/wedding-22.4b.mp4,stims/wedding-22.5.mp4,stimsday2details/painting22.png,stimsday2details/newpainting13.png,stimsday2details/couple22.png,stimsday2details/newperson27.png,stimsday2details/gift22.png,stimsday2details/new27.png,stimsday2details/n22.png,stimsday2details/cn22.png,stimsday2details/t22.png,stimsday2details/ct22.png,0,2,2,2,,,,,,,,,,,,,0,0,0,0,,,,,,,,,,,,,,,,,,,,,,,,,,,,,,,None,None,None,None,None,None,None,None,None,None,None,None,None,None,None,None,None,None,None,,None,None,None,,None,None,,,,,,,,,,,,,,,,,,,,,,,,,,,,,,,,,,,,,,,,,,,,,,,,,,,001,41,2020_Jan_22_1339,viewing,3.1.2,60.06243755381782,
north.png,stims/wedding-22.1a.mp4,stims/wedding-22.1b.mp4,stims/wedding-22.2b.mp4,stims/wedding-22.3b.mp4,stims/wedding-22.4b.mp4,stims/wedding-22.5.mp4,stimsday2details/painting22.png,stimsday2details/newpainting13.png,stimsday2details/couple22.png,stimsday2details/newperson27.png,stimsday2details/gift22.png,stimsday2details/new27.png,stimsday2details/n22.png,stimsday2details/cn22.png,stimsday2details/t22.png,stimsday2details/ct22.png,0,2,2,2,,,,,,,,,,,,,,,,,,,,,,,,,,,,,,,,,,,,,,,,,,,,,,,,,,,,,,,,,,,,,,,,,,,,,,,,,4.275236278772354e-05,None,1,0.9669249942526221,450.88417328801006,None,450.88417328801006,None,450.88417328801006,None,452.86534065473825,None,1,0.885943191125989,452.86534065473825,None,452.86534065473825,None,454.8653109120205,None,454.8653109120205,None,1,0.7687295321375132,454.8653109120205,None,1,1.818948807194829,456.8653461188078,None,456.8653461188078,None,456.8653461188078,None,458.8653366146609,None,458.8653366146609,None,1,1.0355238998308778,458.8653366146609,None,460.86529581900686,None,460.86529581900686,None,1,0.5200731921941042,460.86529581900686,None,001,41,2020_Jan_22_1339,viewing,3.1.2,60.06243755381782,
south.png,stims/wedding-34.1a.mp4,stims/wedding-34.1b.mp4,stims/wedding-34.2b.mp4,stims/wedding-34.3a.mp4,stims/wedding-34.4b.mp4,stims/wedding-34.5.mp4,stimsday2details/newpainting14.png,stimsday2details/painting34.png,stimsday2details/couple34.png,stimsday2details/newperson28.png,stimsday2details/gift34.png,stimsday2details/new28.png,stimsday2details/cn34.png,stimsday2details/n34.png,stimsday2details/t34.png,stimsday2details/ct34.png,0,3,3,3,0,0,0,0,,,,,,,,,,,,,,,,,,,,,,,,,462.8652070676908,None,,,,,,,,,,,,,,,,,,,,,,,,,,,,,,,,,,,,,,,,,,,,,,,,,,,,,,,,,,,,,,,,,,,,,,,,,,,,,,,,,,,,,,,,,,,,,001,41,2020_Jan_22_1339,viewing,3.1.2,60.06243755381782,
south.png,stims/wedding-34.1a.mp4,stims/wedding-34.1b.mp4,stims/wedding-34.2b.mp4,stims/wedding-34.3a.mp4,stims/wedding-34.4b.mp4,stims/wedding-34.5.mp4,stimsday2details/newpainting14.png,stimsday2details/painting34.png,stimsday2details/couple34.png,stimsday2details/newperson28.png,stimsday2details/gift34.png,stimsday2details/new28.png,stimsday2details/cn34.png,stimsday2details/n34.png,stimsday2details/t34.png,stimsday2details/ct34.png,0,3,3,3,,,,,0,0,0,0,,,,,,,,,,,,,,,,,,,,,,,None,None,,,,,,,,,,,,,,,,,,,,,,,,,,,,,,,,,,,,,,,,,,,,,,,,,,,,,,,,,,,,,,,,,,,,,,,,,,,,,,,,,,,,,,,,,,,001,41,2020_Jan_22_1339,viewing,3.1.2,60.06243755381782,
south.png,stims/wedding-34.1a.mp4,stims/wedding-34.1b.mp4,stims/wedding-34.2b.mp4,stims/wedding-34.3a.mp4,stims/wedding-34.4b.mp4,stims/wedding-34.5.mp4,stimsday2details/newpainting14.png,stimsday2details/painting34.png,stimsday2details/couple34.png,stimsday2details/newperson28.png,stimsday2details/gift34.png,stimsday2details/new28.png,stimsday2details/cn34.png,stimsday2details/n34.png,stimsday2details/t34.png,stimsday2details/ct34.png,0,3,3,3,,,,,,,,,0,0,0,0,,,,,,,,,,,,,,,,,,,,,2.9032147796824574,None,472.9679762935266,498.06484010163695,498.08151047769934,507.0649330159649,507.08149697072804,None,524.0811803750694,None,547.0808985745534,None,571.0807873588055,None,,,,,,,,,,,,,,,,,,,,,,,,,,,,,,,,,,,,,,,,,,,,,,,,,,,,,,,,,,,,,,,,,,,,,,,,,,,,,001,41,2020_Jan_22_1339,viewing,3.1.2,60.06243755381782,
south.png,stims/wedding-34.1a.mp4,stims/wedding-34.1b.mp4,stims/wedding-34.2b.mp4,stims/wedding-34.3a.mp4,stims/wedding-34.4b.mp4,stims/wedding-34.5.mp4,stimsday2details/newpainting14.png,stimsday2details/painting34.png,stimsday2details/couple34.png,stimsday2details/newperson28.png,stimsday2details/gift34.png,stimsday2details/new28.png,stimsday2details/cn34.png,stimsday2details/n34.png,stimsday2details/t34.png,stimsday2details/ct34.png,0,3,3,3,,,,,,,,,,,,,0,0,0,0,,,,,,,,,,,,,,,,,,,,,,,,,,,,,,,None,None,None,None,None,None,None,None,None,None,None,None,None,None,None,None,None,None,None,,None,None,None,,None,None,,,,,,,,,,,,,,,,,,,,,,,,,,,,,,,,,,,,,,,,,,,,,,,,,,,001,41,2020_Jan_22_1339,viewing,3.1.2,60.06243755381782,
south.png,stims/wedding-34.1a.mp4,stims/wedding-34.1b.mp4,stims/wedding-34.2b.mp4,stims/wedding-34.3a.mp4,stims/wedding-34.4b.mp4,stims/wedding-34.5.mp4,stimsday2details/newpainting14.png,stimsday2details/painting34.png,stimsday2details/couple34.png,stimsday2details/newperson28.png,stimsday2details/gift34.png,stimsday2details/new28.png,stimsday2details/cn34.png,stimsday2details/n34.png,stimsday2details/t34.png,stimsday2details/ct34.png,0,3,3,3,,,,,,,,,,,,,,,,,,,,,,,,,,,,,,,,,,,,,,,,,,,,,,,,,,,,,,,,,,,,,,,,,,,,,,,,,3.501866012811661e-05,None,2,1.3501295186579227,594.463714546524,None,594.463714546524,None,594.463714546524,None,596.4636070476845,None,2,1.0360273821279407,596.4636070476845,None,596.4636070476845,None,598.4635858917609,None,598.4635858917609,None,1,0.819010503590107,598.4635858917609,None,1,1.652058175764978,600.4637418566272,None,600.4637418566272,None,600.4637418566272,None,602.4635402755812,None,602.4635402755812,None,1,1.0193627243861556,602.4635402755812,None,604.4635069044307,None,604.4635069044307,None,2,0.38574212323874235,604.4635069044307,None,001,41,2020_Jan_22_1339,viewing,3.1.2,60.06243755381782,
south.png,stims/wedding-38.1a.mp4,stims/wedding-38.1b.mp4,stims/wedding-38.2a.mp4,stims/wedding-38.3b.mp4,stims/wedding-38.4a.mp4,stims/wedding-38.5.mp4,stimsday2details/egg38.png,stimsday2details/newegg15.png,stimsday2details/couple38.png,stimsday2details/newperson29.png,stimsday2details/gift38.png,stimsday2details/new29.png,stimsday2details/cn38.png,stimsday2details/n38.png,stimsday2details/t38.png,stimsday2details/ct38.png,0,4,4,4,0,0,0,0,,,,,,,,,,,,,,,,,,,,,,,,,606.4634846029803,None,,,,,,,,,,,,,,,,,,,,,,,,,,,,,,,,,,,,,,,,,,,,,,,,,,,,,,,,,,,,,,,,,,,,,,,,,,,,,,,,,,,,,,,,,,,,,001,41,2020_Jan_22_1339,viewing,3.1.2,60.06243755381782,
south.png,stims/wedding-38.1a.mp4,stims/wedding-38.1b.mp4,stims/wedding-38.2a.mp4,stims/wedding-38.3b.mp4,stims/wedding-38.4a.mp4,stims/wedding-38.5.mp4,stimsday2details/egg38.png,stimsday2details/newegg15.png,stimsday2details/couple38.png,stimsday2details/newperson29.png,stimsday2details/gift38.png,stimsday2details/new29.png,stimsday2details/cn38.png,stimsday2details/n38.png,stimsday2details/t38.png,stimsday2details/ct38.png,0,4,4,4,,,,,0,0,0,0,,,,,,,,,,,,,,,,,,,,,,,None,None,,,,,,,,,,,,,,,,,,,,,,,,,,,,,,,,,,,,,,,,,,,,,,,,,,,,,,,,,,,,,,,,,,,,,,,,,,,,,,,,,,,,,,,,,,,001,41,2020_Jan_22_1339,viewing,3.1.2,60.06243755381782,
south.png,stims/wedding-38.1a.mp4,stims/wedding-38.1b.mp4,stims/wedding-38.2a.mp4,stims/wedding-38.3b.mp4,stims/wedding-38.4a.mp4,stims/wedding-38.5.mp4,stimsday2details/egg38.png,stimsday2details/newegg15.png,stimsday2details/couple38.png,stimsday2details/newperson29.png,stimsday2details/gift38.png,stimsday2details/new29.png,stimsday2details/cn38.png,stimsday2details/n38.png,stimsday2details/t38.png,stimsday2details/ct38.png,0,4,4,4,,,,,,,,,0,0,0,0,,,,,,,,,,,,,,,,,,,,,2.9804741805419326,None,616.6801240062341,641.6963928546757,641.7130445353687,None,650.7129466151819,667.6960713993758,667.7127241231501,690.695953563787,690.7125292643905,None,714.7121356939897,None,,,,,,,,,,,,,,,,,,,,,,,,,,,,,,,,,,,,,,,,,,,,,,,,,,,,,,,,,,,,,,,,,,,,,,,,,,,,,001,41,2020_Jan_22_1339,viewing,3.1.2,60.06243755381782,
south.png,stims/wedding-38.1a.mp4,stims/wedding-38.1b.mp4,stims/wedding-38.2a.mp4,stims/wedding-38.3b.mp4,stims/wedding-38.4a.mp4,stims/wedding-38.5.mp4,stimsday2details/egg38.png,stimsday2details/newegg15.png,stimsday2details/couple38.png,stimsday2details/newperson29.png,stimsday2details/gift38.png,stimsday2details/new29.png,stimsday2details/cn38.png,stimsday2details/n38.png,stimsday2details/t38.png,stimsday2details/ct38.png,0,4,4,4,,,,,,,,,,,,,0,0,0,0,,,,,,,,,,,,,,,,,,,,,,,,,,,,,,,None,None,None,None,None,None,None,None,None,None,None,None,None,None,None,None,None,None,None,,None,None,None,,None,None,,,,,,,,,,,,,,,,,,,,,,,,,,,,,,,,,,,,,,,,,,,,,,,,,,,001,41,2020_Jan_22_1339,viewing,3.1.2,60.06243755381782,
south.png,stims/wedding-38.1a.mp4,stims/wedding-38.1b.mp4,stims/wedding-38.2a.mp4,stims/wedding-38.3b.mp4,stims/wedding-38.4a.mp4,stims/wedding-38.5.mp4,stimsday2details/egg38.png,stimsday2details/newegg15.png,stimsday2details/couple38.png,stimsday2details/newperson29.png,stimsday2details/gift38.png,stimsday2details/new29.png,stimsday2details/cn38.png,stimsday2details/n38.png,stimsday2details/t38.png,stimsday2details/ct38.png,0,4,4,4,,,,,,,,,,,,,,,,,,,,,,,,,,,,,,,,,,,,,,,,,,,,,,,,,,,,,,,,,,,,,,,,,,,,,,,,,3.6629848182201385e-05,None,2,1.519049797207117,738.6120230033994,None,738.6120230033994,None,738.6120230033994,None,740.5951326387003,None,2,1.800408249720931,740.5951326387003,None,740.5951326387003,None,742.595055016689,None,742.595055016689,None,1,0.9520345330238342,742.595055016689,None,1,1.8517029760405421,744.595024427399,None,744.595024427399,None,744.595024427399,None,746.5949851050973,None,746.5949851050973,None,1,1.4517633514478803,746.5949851050973,None,748.5952049586922,None,748.5952049586922,None,1,1.6849843319505453,748.5952049586922,None,001,41,2020_Jan_22_1339,viewing,3.1.2,60.06243755381782,
north.png,stims/wedding-1.1a.mp4,stims/wedding-1.1b.mp4,stims/wedding-1.2a.mp4,stims/wedding-1.3a.mp4,stims/wedding-1.4a.mp4,stims/wedding-1.5.mp4,stimsday2details/newegg16.png,stimsday2details/egg1.png,stimsday2details/newperson30.png,stimsday2details/couple1.png,stimsday2details/new30.png,stimsday2details/gift1.png,stimsday2details/n1.png,stimsday2details/cn1.png,stimsday2details/ct1.png,stimsday2details/t1.png,0,5,5,5,0,0,0,0,,,,,,,,,,,,,,,,,,,,,,,,,None,None,,,,,,,,,,,,,,,,,,,,,,,,,,,,,,,,,,,,,,,,,,,,,,,,,,,,,,,,,,,,,,,,,,,,,,,,,,,,,,,,,,,,,,,,,,,,,001,41,2020_Jan_22_1339,viewing,3.1.2,60.06243755381782,
north.png,stims/wedding-1.1a.mp4,stims/wedding-1.1b.mp4,stims/wedding-1.2a.mp4,stims/wedding-1.3a.mp4,stims/wedding-1.4a.mp4,stims/wedding-1.5.mp4,stimsday2details/newegg16.png,stimsday2details/egg1.png,stimsday2details/newperson30.png,stimsday2details/couple1.png,stimsday2details/new30.png,stimsday2details/gift1.png,stimsday2details/n1.png,stimsday2details/cn1.png,stimsday2details/ct1.png,stimsday2details/t1.png,0,5,5,5,,,,,0,0,0,0,,,,,,,,,,,,,,,,,,,,,,,750.728437484242,None,,,,,,,,,,,,,,,,,,,,,,,,,,,,,,,,,,,,,,,,,,,,,,,,,,,,,,,,,,,,,,,,,,,,,,,,,,,,,,,,,,,,,,,,,,,001,41,2020_Jan_22_1339,viewing,3.1.2,60.06243755381782,
north.png,stims/wedding-1.1a.mp4,stims/wedding-1.1b.mp4,stims/wedding-1.2a.mp4,stims/wedding-1.3a.mp4,stims/wedding-1.4a.mp4,stims/wedding-1.5.mp4,stimsday2details/newegg16.png,stimsday2details/egg1.png,stimsday2details/newperson30.png,stimsday2details/couple1.png,stimsday2details/new30.png,stimsday2details/gift1.png,stimsday2details/n1.png,stimsday2details/cn1.png,stimsday2details/ct1.png,stimsday2details/t1.png,0,5,5,5,,,,,,,,,0,0,0,0,,,,,,,,,,,,,,,,,,,,,2.9868806609883904,None,760.861550109461,785.8780521303415,785.8780521303415,None,794.8779758540913,811.8777639204636,811.8777639204636,834.8774747196585,834.8774747196585,None,858.8769922843203,None,,,,,,,,,,,,,,,,,,,,,,,,,,,,,,,,,,,,,,,,,,,,,,,,,,,,,,,,,,,,,,,,,,,,,,,,,,,,,001,41,2020_Jan_22_1339,viewing,3.1.2,60.06243755381782,
north.png,stims/wedding-1.1a.mp4,stims/wedding-1.1b.mp4,stims/wedding-1.2a.mp4,stims/wedding-1.3a.mp4,stims/wedding-1.4a.mp4,stims/wedding-1.5.mp4,stimsday2details/newegg16.png,stimsday2details/egg1.png,stimsday2details/newperson30.png,stimsday2details/couple1.png,stimsday2details/new30.png,stimsday2details/gift1.png,stimsday2details/n1.png,stimsday2details/cn1.png,stimsday2details/ct1.png,stimsday2details/t1.png,0,5,5,5,,,,,,,,,,,,,0,0,0,0,,,,,,,,,,,,,,,,,,,,,,,,,,,,,,,None,None,None,None,None,None,None,None,None,None,None,None,None,None,None,None,None,None,None,,None,None,None,,None,None,,,,,,,,,,,,,,,,,,,,,,,,,,,,,,,,,,,,,,,,,,,,,,,,,,,001,41,2020_Jan_22_1339,viewing,3.1.2,60.06243755381782,
north.png,stims/wedding-1.1a.mp4,stims/wedding-1.1b.mp4,stims/wedding-1.2a.mp4,stims/wedding-1.3a.mp4,stims/wedding-1.4a.mp4,stims/wedding-1.5.mp4,stimsday2details/newegg16.png,stimsday2details/egg1.png,stimsday2details/newperson30.png,stimsday2details/couple1.png,stimsday2details/new30.png,stimsday2details/gift1.png,stimsday2details/n1.png,stimsday2details/cn1.png,stimsday2details/ct1.png,stimsday2details/t1.png,0,5,5,5,,,,,,,,,,,,,,,,,,,,,,,,,,,,,,,,,,,,,,,,,,,,,,,,,,,,,,,,,,,,,,,,,,,,,,,,,5.0980597734451294e-05,None,2,1.5665479255840182,882.6791849657893,None,882.6791849657893,None,882.6791849657893,None,884.6600049296394,None,2,1.4021610897034407,884.6600049296394,None,884.6600049296394,None,886.6599705182016,None,886.6599705182016,None,2,1.0020651631057262,886.6599705182016,None,2,1.7024117028340697,888.6599471522495,None,888.6599471522495,None,888.6599471522495,None,890.6598620545119,None,890.6598620545119,None,2,1.0022146571427584,890.6598620545119,None,892.6598970293999,None,892.6598970293999,None,1,0.45239267498254776,892.6598970293999,None,001,41,2020_Jan_22_1339,viewing,3.1.2,60.06243755381782,
north.png,stims/wedding-19.1a.mp4,stims/wedding-19.1b.mp4,stims/wedding-19.2b.mp4,stims/wedding-19.3b.mp4,stims/wedding-19.4b.mp4,stims/wedding-19.5.mp4,stimsday2details/newpainting15.png,stimsday2details/painting19.png,stimsday2details/couple19.png,stimsday2details/newperson31.png,stimsday2details/new31.png,stimsday2details/gift19.png,stimsday2details/n19.png,stimsday2details/cn19.png,stimsday2details/t19.png,stimsday2details/ct19.png,0,6,6,6,0,0,0,0,,,,,,,,,,,,,,,,,,,,,,,,,None,None,,,,,,,,,,,,,,,,,,,,,,,,,,,,,,,,,,,,,,,,,,,,,,,,,,,,,,,,,,,,,,,,,,,,,,,,,,,,,,,,,,,,,,,,,,,,,001,41,2020_Jan_22_1339,viewing,3.1.2,60.06243755381782,
north.png,stims/wedding-19.1a.mp4,stims/wedding-19.1b.mp4,stims/wedding-19.2b.mp4,stims/wedding-19.3b.mp4,stims/wedding-19.4b.mp4,stims/wedding-19.5.mp4,stimsday2details/newpainting15.png,stimsday2details/painting19.png,stimsday2details/couple19.png,stimsday2details/newperson31.png,stimsday2details/new31.png,stimsday2details/gift19.png,stimsday2details/n19.png,stimsday2details/cn19.png,stimsday2details/t19.png,stimsday2details/ct19.png,0,6,6,6,,,,,0,0,0,0,,,,,,,,,,,,,,,,,,,,,,,894.8100408650935,None,,,,,,,,,,,,,,,,,,,,,,,,,,,,,,,,,,,,,,,,,,,,,,,,,,,,,,,,,,,,,,,,,,,,,,,,,,,,,,,,,,,,,,,,,,,001,41,2020_Jan_22_1339,viewing,3.1.2,60.06243755381782,
north.png,stims/wedding-19.1a.mp4,stims/wedding-19.1b.mp4,stims/wedding-19.2b.mp4,stims/wedding-19.3b.mp4,stims/wedding-19.4b.mp4,stims/wedding-19.5.mp4,stimsday2details/newpainting15.png,stimsday2details/painting19.png,stimsday2details/couple19.png,stimsday2details/newperson31.png,stimsday2details/new31.png,stimsday2details/gift19.png,stimsday2details/n19.png,stimsday2details/cn19.png,stimsday2details/t19.png,stimsday2details/ct19.png,0,6,6,6,,,,,,,,,0,0,0,0,,,,,,,,,,,,,,,,,,,,,3.0172729771584272,None,905.2626611385494,930.2427969109267,930.2594267679378,None,939.2595146931708,956.2424775771797,956.2591105811298,979.2421450195834,979.2588191274554,None,1003.2585010174662,None,,,,,,,,,,,,,,,,,,,,,,,,,,,,,,,,,,,,,,,,,,,,,,,,,,,,,,,,,,,,,,,,,,,,,,,,,,,,,001,41,2020_Jan_22_1339,viewing,3.1.2,60.06243755381782,
north.png,stims/wedding-19.1a.mp4,stims/wedding-19.1b.mp4,stims/wedding-19.2b.mp4,stims/wedding-19.3b.mp4,stims/wedding-19.4b.mp4,stims/wedding-19.5.mp4,stimsday2details/newpainting15.png,stimsday2details/painting19.png,stimsday2details/couple19.png,stimsday2details/newperson31.png,stimsday2details/new31.png,stimsday2details/gift19.png,stimsday2details/n19.png,stimsday2details/cn19.png,stimsday2details/t19.png,stimsday2details/ct19.png,0,6,6,6,,,,,,,,,,,,,0,0,0,0,,,,,,,,,,,,,,,,,,,,,,,,,,,,,,,None,None,None,None,None,None,None,None,None,None,None,None,None,None,None,None,None,None,None,,None,None,None,,None,None,,,,,,,,,,,,,,,,,,,,,,,,,,,,,,,,,,,,,,,,,,,,,,,,,,,001,41,2020_Jan_22_1339,viewing,3.1.2,60.06243755381782,
north.png,stims/wedding-19.1a.mp4,stims/wedding-19.1b.mp4,stims/wedding-19.2b.mp4,stims/wedding-19.3b.mp4,stims/wedding-19.4b.mp4,stims/wedding-19.5.mp4,stimsday2details/newpainting15.png,stimsday2details/painting19.png,stimsday2details/couple19.png,stimsday2details/newperson31.png,stimsday2details/new31.png,stimsday2details/gift19.png,stimsday2details/n19.png,stimsday2details/cn19.png,stimsday2details/t19.png,stimsday2details/ct19.png,0,6,6,6,,,,,,,,,,,,,,,,,,,,,,,,,,,,,,,,,,,,,,,,,,,,,,,,,,,,,,,,,,,,,,,,,,,,,,,,,3.0045397579669952e-05,None,1,1.1354260751977563,1027.5749379163608,None,1027.5749379163608,None,1027.5749379163608,None,1029.55818042811,None,2,0.8852541539818048,1029.55818042811,None,1029.55818042811,None,1031.5581569941714,None,1031.5581569941714,None,1,0.8191406903788447,1031.5581569941714,None,2,1.8521360019221902,1033.558308395557,None,1033.558308395557,None,1033.558308395557,None,1035.558116001077,None,1035.558116001077,None,2,0.9852674584835768,1035.558116001077,None,1037.558085879311,None,1037.558085879311,None,1,0.652368875220418,1037.558085879311,None,001,41,2020_Jan_22_1339,viewing,3.1.2,60.06243755381782,
south.png,stims/wedding-20.1a.mp4,stims/wedding-20.1b.mp4,stims/wedding-20.2b.mp4,stims/wedding-20.3a.mp4,stims/wedding-20.4b.mp4,stims/wedding-20.5.mp4,stimsday2details/newpainting16.png,stimsday2details/painting20.png,stimsday2details/newperson32.png,stimsday2details/couple20.png,stimsday2details/new32.png,stimsday2details/gift20.png,stimsday2details/n20.png,stimsday2details/cn20.png,stimsday2details/ct20.png,stimsday2details/t20.png,0,7,7,7,0,0,0,0,,,,,,,,,,,,,,,,,,,,,,,,,1039.5580542040989,None,,,,,,,,,,,,,,,,,,,,,,,,,,,,,,,,,,,,,,,,,,,,,,,,,,,,,,,,,,,,,,,,,,,,,,,,,,,,,,,,,,,,,,,,,,,,,001,41,2020_Jan_22_1339,viewing,3.1.2,60.06243755381782,
south.png,stims/wedding-20.1a.mp4,stims/wedding-20.1b.mp4,stims/wedding-20.2b.mp4,stims/wedding-20.3a.mp4,stims/wedding-20.4b.mp4,stims/wedding-20.5.mp4,stimsday2details/newpainting16.png,stimsday2details/painting20.png,stimsday2details/newperson32.png,stimsday2details/couple20.png,stimsday2details/new32.png,stimsday2details/gift20.png,stimsday2details/n20.png,stimsday2details/cn20.png,stimsday2details/ct20.png,stimsday2details/t20.png,0,7,7,7,,,,,0,0,0,0,,,,,,,,,,,,,,,,,,,,,,,None,None,,,,,,,,,,,,,,,,,,,,,,,,,,,,,,,,,,,,,,,,,,,,,,,,,,,,,,,,,,,,,,,,,,,,,,,,,,,,,,,,,,,,,,,,,,,001,41,2020_Jan_22_1339,viewing,3.1.2,60.06243755381782,
south.png,stims/wedding-20.1a.mp4,stims/wedding-20.1b.mp4,stims/wedding-20.2b.mp4,stims/wedding-20.3a.mp4,stims/wedding-20.4b.mp4,stims/wedding-20.5.mp4,stimsday2details/newpainting16.png,stimsday2details/painting20.png,stimsday2details/newperson32.png,stimsday2details/couple20.png,stimsday2details/new32.png,stimsday2details/gift20.png,stimsday2details/n20.png,stimsday2details/cn20.png,stimsday2details/ct20.png,stimsday2details/t20.png,0,7,7,7,,,,,,,,,0,0,0,0,,,,,,,,,,,,,,,,,,,,,2.776609485037625,None,1049.707935411483,1074.9244597833604,1074.9408981390297,None,1083.9410413363948,None,1100.940595306456,1123.9236701363698,1123.9403332145885,None,1147.940033714287,None,,,,,,,,,,,,,,,,,,,,,,,,,,,,,,,,,,,,,,,,,,,,,,,,,,,,,,,,,,,,,,,,,,,,,,,,,,,,,001,41,2020_Jan_22_1339,viewing,3.1.2,60.06243755381782,
south.png,stims/wedding-20.1a.mp4,stims/wedding-20.1b.mp4,stims/wedding-20.2b.mp4,stims/wedding-20.3a.mp4,stims/wedding-20.4b.mp4,stims/wedding-20.5.mp4,stimsday2details/newpainting16.png,stimsday2details/painting20.png,stimsday2details/newperson32.png,stimsday2details/couple20.png,stimsday2details/new32.png,stimsday2details/gift20.png,stimsday2details/n20.png,stimsday2details/cn20.png,stimsday2details/ct20.png,stimsday2details/t20.png,0,7,7,7,,,,,,,,,,,,,0,0,0,0,,,,,,,,,,,,,,,,,,,,,,,,,,,,,,,None,None,None,None,None,None,None,None,None,None,None,None,None,None,None,None,None,None,None,,None,None,None,,None,None,,,,,,,,,,,,,,,,,,,,,,,,,,,,,,,,,,,,,,,,,,,,,,,,,,,001,41,2020_Jan_22_1339,viewing,3.1.2,60.06243755381782,
south.png,stims/wedding-20.1a.mp4,stims/wedding-20.1b.mp4,stims/wedding-20.2b.mp4,stims/wedding-20.3a.mp4,stims/wedding-20.4b.mp4,stims/wedding-20.5.mp4,stimsday2details/newpainting16.png,stimsday2details/painting20.png,stimsday2details/newperson32.png,stimsday2details/couple20.png,stimsday2details/new32.png,stimsday2details/gift20.png,stimsday2details/n20.png,stimsday2details/cn20.png,stimsday2details/ct20.png,stimsday2details/t20.png,0,7,7,7,,,,,,,,,,,,,,,,,,,,,,,,,,,,,,,,,,,,,,,,,,,,,,,,,,,,,,,,,,,,,,,,,,,,,,,,,4.372745752334595e-05,None,None,,1170.7425599005073,None,1170.7425599005073,None,1170.7425599005073,None,1172.723208827898,None,2,1.0001159040257335,1172.723208827898,None,1172.723208827898,None,1174.7230366608128,None,1174.7230366608128,None,2,1.018571020103991,1174.7230366608128,None,1,1.4354090197011828,1176.7230184674263,None,1176.7230184674263,None,1176.7230184674263,None,1178.7229985846207,None,1178.7229985846207,None,2,0.9855722142383456,1178.7229985846207,None,1180.7229568269104,None,1180.7229568269104,None,1,1.185603553429246,1180.7229568269104,None,001,41,2020_Jan_22_1339,viewing,3.1.2,60.06243755381782,
south.png,stims/wedding-23.1a.mp4,stims/wedding-23.1b.mp4,stims/wedding-23.2a.mp4,stims/wedding-23.3b.mp4,stims/wedding-23.4a.mp4,stims/wedding-23.5.mp4,stimsday2details/newegg17.png,stimsday2details/egg23.png,stimsday2details/newperson33.png,stimsday2details/couple23.png,stimsday2details/new33.png,stimsday2details/gift23.png,stimsday2details/n23.png,stimsday2details/cn23.png,stimsday2details/t23.png,stimsday2details/ct23.png,0,8,8,8,0,0,0,0,,,,,,,,,,,,,,,,,,,,,,,,,1182.7229367271066,None,,,,,,,,,,,,,,,,,,,,,,,,,,,,,,,,,,,,,,,,,,,,,,,,,,,,,,,,,,,,,,,,,,,,,,,,,,,,,,,,,,,,,,,,,,,,,001,41,2020_Jan_22_1339,viewing,3.1.2,60.06243755381782,
south.png,stims/wedding-23.1a.mp4,stims/wedding-23.1b.mp4,stims/wedding-23.2a.mp4,stims/wedding-23.3b.mp4,stims/wedding-23.4a.mp4,stims/wedding-23.5.mp4,stimsday2details/newegg17.png,stimsday2details/egg23.png,stimsday2details/newperson33.png,stimsday2details/couple23.png,stimsday2details/new33.png,stimsday2details/gift23.png,stimsday2details/n23.png,stimsday2details/cn23.png,stimsday2details/t23.png,stimsday2details/ct23.png,0,8,8,8,,,,,0,0,0,0,,,,,,,,,,,,,,,,,,,,,,,None,None,,,,,,,,,,,,,,,,,,,,,,,,,,,,,,,,,,,,,,,,,,,,,,,,,,,,,,,,,,,,,,,,,,,,,,,,,,,,,,,,,,,,,,,,,,,001,41,2020_Jan_22_1339,viewing,3.1.2,60.06243755381782,
south.png,stims/wedding-23.1a.mp4,stims/wedding-23.1b.mp4,stims/wedding-23.2a.mp4,stims/wedding-23.3b.mp4,stims/wedding-23.4a.mp4,stims/wedding-23.5.mp4,stimsday2details/newegg17.png,stimsday2details/egg23.png,stimsday2details/newperson33.png,stimsday2details/couple23.png,stimsday2details/new33.png,stimsday2details/gift23.png,stimsday2details/n23.png,stimsday2details/cn23.png,stimsday2details/t23.png,stimsday2details/ct23.png,0,8,8,8,,,,,,,,,0,0,0,0,,,,,,,,,,,,,,,,,,,,,3.0126335378736258,None,1193.1563178244978,1218.1391634605825,1218.1557679763064,None,1227.1557173542678,1244.138849677518,1244.1555078895763,1267.1385425254703,1267.1552165774629,1291.138252045028,1291.154920982197,None,,,,,,,,,,,,,,,,,,,,,,,,,,,,,,,,,,,,,,,,,,,,,,,,,,,,,,,,,,,,,,,,,,,,,,,,,,,,,001,41,2020_Jan_22_1339,viewing,3.1.2,60.06243755381782,
south.png,stims/wedding-23.1a.mp4,stims/wedding-23.1b.mp4,stims/wedding-23.2a.mp4,stims/wedding-23.3b.mp4,stims/wedding-23.4a.mp4,stims/wedding-23.5.mp4,stimsday2details/newegg17.png,stimsday2details/egg23.png,stimsday2details/newperson33.png,stimsday2details/couple23.png,stimsday2details/new33.png,stimsday2details/gift23.png,stimsday2details/n23.png,stimsday2details/cn23.png,stimsday2details/t23.png,stimsday2details/ct23.png,0,8,8,8,,,,,,,,,,,,,0,0,0,0,,,,,,,,,,,,,,,,,,,,,,,,,,,,,,,None,None,None,None,None,None,None,None,None,None,None,None,None,None,None,None,None,None,None,,None,None,None,,None,None,,,,,,,,,,,,,,,,,,,,,,,,,,,,,,,,,,,,,,,,,,,,,,,,,,,001,41,2020_Jan_22_1339,viewing,3.1.2,60.06243755381782,
south.png,stims/wedding-23.1a.mp4,stims/wedding-23.1b.mp4,stims/wedding-23.2a.mp4,stims/wedding-23.3b.mp4,stims/wedding-23.4a.mp4,stims/wedding-23.5.mp4,stimsday2details/newegg17.png,stimsday2details/egg23.png,stimsday2details/newperson33.png,stimsday2details/couple23.png,stimsday2details/new33.png,stimsday2details/gift23.png,stimsday2details/n23.png,stimsday2details/cn23.png,stimsday2details/t23.png,stimsday2details/ct23.png,0,8,8,8,,,,,,,,,,,,,,,,,,,,,,,,,,,,,,,,,,,,,,,,,,,,,,,,,,,,,,,,,,,,,,,,,,,,,,,,,4.827044904232025e-05,None,1,1.035816521383822,1315.7212118795142,None,1315.7212118795142,None,1315.7212118795142,None,1317.7047495516017,None,2,1.1688787275925279,1317.7047495516017,None,1317.7047495516017,None,1319.704482843168,None,1319.704482843168,None,2,0.8689178684726357,1319.704482843168,None,1,1.6358692785724998,1321.7044789446518,None,1321.7044789446518,None,1321.7044789446518,None,1323.704447126016,None,1323.704447126016,None,2,1.0525200553238392,1323.704447126016,None,1325.7044090945274,None,1325.7044090945274,None,1,1.0188322570174932,1325.7044090945274,None,001,41,2020_Jan_22_1339,viewing,3.1.2,60.06243755381782,
north.png,stims/wedding-29.1a.mp4,stims/wedding-29.1b.mp4,stims/wedding-29.2a.mp4,stims/wedding-29.3a.mp4,stims/wedding-29.4a.mp4,stims/wedding-29.5.mp4,stimsday2details/newegg18.png,stimsday2details/egg29.png,stimsday2details/couple29.png,stimsday2details/newperson34.png,stimsday2details/new34.png,stimsday2details/gift29.png,stimsday2details/cn29.png,stimsday2details/n29.png,stimsday2details/ct29.png,stimsday2details/t29.png,0,9,9,9,0,0,0,0,,,,,,,,,,,,,,,,,,,,,,,,,None,None,,,,,,,,,,,,,,,,,,,,,,,,,,,,,,,,,,,,,,,,,,,,,,,,,,,,,,,,,,,,,,,,,,,,,,,,,,,,,,,,,,,,,,,,,,,,,001,41,2020_Jan_22_1339,viewing,3.1.2,60.06243755381782,
north.png,stims/wedding-29.1a.mp4,stims/wedding-29.1b.mp4,stims/wedding-29.2a.mp4,stims/wedding-29.3a.mp4,stims/wedding-29.4a.mp4,stims/wedding-29.5.mp4,stimsday2details/newegg18.png,stimsday2details/egg29.png,stimsday2details/couple29.png,stimsday2details/newperson34.png,stimsday2details/new34.png,stimsday2details/gift29.png,stimsday2details/cn29.png,stimsday2details/n29.png,stimsday2details/ct29.png,stimsday2details/t29.png,0,9,9,9,,,,,0,0,0,0,,,,,,,,,,,,,,,,,,,,,,,1328.0878077335656,None,,,,,,,,,,,,,,,,,,,,,,,,,,,,,,,,,,,,,,,,,,,,,,,,,,,,,,,,,,,,,,,,,,,,,,,,,,,,,,,,,,,,,,,,,,,001,41,2020_Jan_22_1339,viewing,3.1.2,60.06243755381782,
north.png,stims/wedding-29.1a.mp4,stims/wedding-29.1b.mp4,stims/wedding-29.2a.mp4,stims/wedding-29.3a.mp4,stims/wedding-29.4a.mp4,stims/wedding-29.5.mp4,stimsday2details/newegg18.png,stimsday2details/egg29.png,stimsday2details/couple29.png,stimsday2details/newperson34.png,stimsday2details/new34.png,stimsday2details/gift29.png,stimsday2details/cn29.png,stimsday2details/n29.png,stimsday2details/ct29.png,stimsday2details/t29.png,0,9,9,9,,,,,,,,,0,0,0,0,,,,,,,,,,,,,,,,,,,,,2.930627210997045,None,1338.2544963359833,1363.3206982230768,1363.3373539242893,None,1372.3372375899926,None,1389.3370290603489,None,1412.3367393603548,None,1436.3364415196702,None,,,,,,,,,,,,,,,,,,,,,,,,,,,,,,,,,,,,,,,,,,,,,,,,,,,,,,,,,,,,,,,,,,,,,,,,,,,,,001,41,2020_Jan_22_1339,viewing,3.1.2,60.06243755381782,
north.png,stims/wedding-29.1a.mp4,stims/wedding-29.1b.mp4,stims/wedding-29.2a.mp4,stims/wedding-29.3a.mp4,stims/wedding-29.4a.mp4,stims/wedding-29.5.mp4,stimsday2details/newegg18.png,stimsday2details/egg29.png,stimsday2details/couple29.png,stimsday2details/newperson34.png,stimsday2details/new34.png,stimsday2details/gift29.png,stimsday2details/cn29.png,stimsday2details/n29.png,stimsday2details/ct29.png,stimsday2details/t29.png,0,9,9,9,,,,,,,,,,,,,0,0,0,0,,,,,,,,,,,,,,,,,,,,,,,,,,,,,,,None,None,None,None,None,None,None,None,None,None,None,None,None,None,None,None,None,None,None,,None,None,None,,None,None,,,,,,,,,,,,,,,,,,,,,,,,,,,,,,,,,,,,,,,,,,,,,,,,,,,001,41,2020_Jan_22_1339,viewing,3.1.2,60.06243755381782,
north.png,stims/wedding-29.1a.mp4,stims/wedding-29.1b.mp4,stims/wedding-29.2a.mp4,stims/wedding-29.3a.mp4,stims/wedding-29.4a.mp4,stims/wedding-29.5.mp4,stimsday2details/newegg18.png,stimsday2details/egg29.png,stimsday2details/couple29.png,stimsday2details/newperson34.png,stimsday2details/new34.png,stimsday2details/gift29.png,stimsday2details/cn29.png,stimsday2details/n29.png,stimsday2details/ct29.png,stimsday2details/t29.png,0,9,9,9,,,,,,,,,,,,,,,,,,,,,,,,,,,,,,,,,,,,,,,,,,,,,,,,,,,,,,,,,,,,,,,,,,,,,,,,,4.1171908378601074e-05,None,2,1.4693236779421568,1460.0361593645066,None,1460.0361593645066,None,1460.0361593645066,None,1462.0195960095152,None,2,0.8188420096412301,1462.0195960095152,None,1462.0195960095152,None,1464.0194606883451,None,1464.0194606883451,None,1,0.668820446357131,1464.0194606883451,None,1,1.8518608687445521,1466.0195703543723,None,1466.0195703543723,None,1466.0195703543723,None,1468.0193759985268,None,1468.0193759985268,None,2,1.3353760270401835,1468.0193759985268,None,1470.0194509159774,None,1470.0194509159774,None,1,0.46887181233614683,1470.0194509159774,None,001,41,2020_Jan_22_1339,viewing,3.1.2,60.06243755381782,
north.png,stims/wedding-28.1a.mp4,stims/wedding-28.1b.mp4,stims/wedding-28.2b.mp4,stims/wedding-28.3b.mp4,stims/wedding-28.4b.mp4,stims/wedding-28.5.mp4,stimsday2details/painting28.png,stimsday2details/newpainting17.png,stimsday2details/couple28.png,stimsday2details/newperson35.png,stimsday2details/gift28.png,stimsday2details/new35.png,stimsday2details/cn28.png,stimsday2details/n28.png,stimsday2details/t28.png,stimsday2details/ct28.png,0,10,10,10,0,0,0,0,,,,,,,,,,,,,,,,,,,,,,,,,None,None,,,,,,,,,,,,,,,,,,,,,,,,,,,,,,,,,,,,,,,,,,,,,,,,,,,,,,,,,,,,,,,,,,,,,,,,,,,,,,,,,,,,,,,,,,,,,001,41,2020_Jan_22_1339,viewing,3.1.2,60.06243755381782,
north.png,stims/wedding-28.1a.mp4,stims/wedding-28.1b.mp4,stims/wedding-28.2b.mp4,stims/wedding-28.3b.mp4,stims/wedding-28.4b.mp4,stims/wedding-28.5.mp4,stimsday2details/painting28.png,stimsday2details/newpainting17.png,stimsday2details/couple28.png,stimsday2details/newperson35.png,stimsday2details/gift28.png,stimsday2details/new35.png,stimsday2details/cn28.png,stimsday2details/n28.png,stimsday2details/t28.png,stimsday2details/ct28.png,0,10,10,10,,,,,0,0,0,0,,,,,,,,,,,,,,,,,,,,,,,1472.2692587971687,None,,,,,,,,,,,,,,,,,,,,,,,,,,,,,,,,,,,,,,,,,,,,,,,,,,,,,,,,,,,,,,,,,,,,,,,,,,,,,,,,,,,,,,,,,,,001,41,2020_Jan_22_1339,viewing,3.1.2,60.06243755381782,
north.png,stims/wedding-28.1a.mp4,stims/wedding-28.1b.mp4,stims/wedding-28.2b.mp4,stims/wedding-28.3b.mp4,stims/wedding-28.4b.mp4,stims/wedding-28.5.mp4,stimsday2details/painting28.png,stimsday2details/newpainting17.png,stimsday2details/couple28.png,stimsday2details/newperson35.png,stimsday2details/gift28.png,stimsday2details/new35.png,stimsday2details/cn28.png,stimsday2details/n28.png,stimsday2details/t28.png,stimsday2details/ct28.png,0,10,10,10,,,,,,,,,0,0,0,0,,,,,,,,,,,,,,,,,,,,,2.9258193941786885,None,1482.489775005728,1507.5523406378925,1507.569050005637,None,1516.5687192147598,None,1533.5685919271782,1556.5683998661116,1556.5683998661116,None,1580.5681588482112,None,,,,,,,,,,,,,,,,,,,,,,,,,,,,,,,,,,,,,,,,,,,,,,,,,,,,,,,,,,,,,,,,,,,,,,,,,,,,,001,41,2020_Jan_22_1339,viewing,3.1.2,60.06243755381782,
north.png,stims/wedding-28.1a.mp4,stims/wedding-28.1b.mp4,stims/wedding-28.2b.mp4,stims/wedding-28.3b.mp4,stims/wedding-28.4b.mp4,stims/wedding-28.5.mp4,stimsday2details/painting28.png,stimsday2details/newpainting17.png,stimsday2details/couple28.png,stimsday2details/newperson35.png,stimsday2details/gift28.png,stimsday2details/new35.png,stimsday2details/cn28.png,stimsday2details/n28.png,stimsday2details/t28.png,stimsday2details/ct28.png,0,10,10,10,,,,,,,,,,,,,0,0,0,0,,,,,,,,,,,,,,,,,,,,,,,,,,,,,,,None,None,None,None,None,None,None,None,None,None,None,None,None,None,None,None,None,None,None,,None,None,None,,None,None,,,,,,,,,,,,,,,,,,,,,,,,,,,,,,,,,,,,,,,,,,,,,,,,,,,001,41,2020_Jan_22_1339,viewing,3.1.2,60.06243755381782,
north.png,stims/wedding-28.1a.mp4,stims/wedding-28.1b.mp4,stims/wedding-28.2b.mp4,stims/wedding-28.3b.mp4,stims/wedding-28.4b.mp4,stims/wedding-28.5.mp4,stimsday2details/painting28.png,stimsday2details/newpainting17.png,stimsday2details/couple28.png,stimsday2details/newperson35.png,stimsday2details/gift28.png,stimsday2details/new35.png,stimsday2details/cn28.png,stimsday2details/n28.png,stimsday2details/t28.png,stimsday2details/ct28.png,0,10,10,10,,,,,,,,,,,,,,,,,,,,,,,,,,,,,,,,,,,,,,,,,,,,,,,,,,,,,,,,,,,,,,,,,,,,,,,,,2.7310103178024292e-05,None,2,1.0019402746111155,1605.1843544133008,None,1605.1843544133008,None,1605.1843544133008,None,1607.1842720247805,None,1,1.3692282438278198,1607.1842720247805,None,1607.1842720247805,None,1609.1842908170074,None,1609.1842908170074,None,1,0.7854061247780919,1609.1842908170074,None,1,1.5022510970011353,1611.184219754301,None,1611.184219754301,None,1611.184219754301,None,1613.184377240017,None,1613.184377240017,None,1,0.8353085797280073,1613.184377240017,None,1615.184240729548,None,1615.184240729548,None,1,0.619078129529953,1615.184240729548,None,001,41,2020_Jan_22_1339,viewing,3.1.2,60.06243755381782,
south.png,stims/wedding-2.1a.mp4,stims/wedding-2.1b.mp4,stims/wedding-2.2b.mp4,stims/wedding-2.3a.mp4,stims/wedding-2.4b.mp4,stims/wedding-2.5.mp4,stimsday2details/newpainting18.png,stimsday2details/painting2.png,stimsday2details/couple2.png,stimsday2details/newperson36.png,stimsday2details/new36.png,stimsday2details/gift2.png,stimsday2details/n2.png,stimsday2details/cn2.png,stimsday2details/t2.png,stimsday2details/ct2.png,0,11,11,11,0,0,0,0,,,,,,,,,,,,,,,,,,,,,,,,,1617.184154839255,None,,,,,,,,,,,,,,,,,,,,,,,,,,,,,,,,,,,,,,,,,,,,,,,,,,,,,,,,,,,,,,,,,,,,,,,,,,,,,,,,,,,,,,,,,,,,,001,41,2020_Jan_22_1339,viewing,3.1.2,60.06243755381782,
south.png,stims/wedding-2.1a.mp4,stims/wedding-2.1b.mp4,stims/wedding-2.2b.mp4,stims/wedding-2.3a.mp4,stims/wedding-2.4b.mp4,stims/wedding-2.5.mp4,stimsday2details/newpainting18.png,stimsday2details/painting2.png,stimsday2details/couple2.png,stimsday2details/newperson36.png,stimsday2details/new36.png,stimsday2details/gift2.png,stimsday2details/n2.png,stimsday2details/cn2.png,stimsday2details/t2.png,stimsday2details/ct2.png,0,11,11,11,,,,,0,0,0,0,,,,,,,,,,,,,,,,,,,,,,,None,None,,,,,,,,,,,,,,,,,,,,,,,,,,,,,,,,,,,,,,,,,,,,,,,,,,,,,,,,,,,,,,,,,,,,,,,,,,,,,,,,,,,,,,,,,,,001,41,2020_Jan_22_1339,viewing,3.1.2,60.06243755381782,
south.png,stims/wedding-2.1a.mp4,stims/wedding-2.1b.mp4,stims/wedding-2.2b.mp4,stims/wedding-2.3a.mp4,stims/wedding-2.4b.mp4,stims/wedding-2.5.mp4,stimsday2details/newpainting18.png,stimsday2details/painting2.png,stimsday2details/couple2.png,stimsday2details/newperson36.png,stimsday2details/new36.png,stimsday2details/gift2.png,stimsday2details/n2.png,stimsday2details/cn2.png,stimsday2details/t2.png,stimsday2details/ct2.png,0,11,11,11,,,,,,,,,0,0,0,0,,,,,,,,,,,,,,,,,,,,,None,None,None,None,None,None,None,None,None,None,None,None,None,None,,,,,,,,,,,,,,,,,,,,,,,,,,,,,,,,,,,,,,,,,,,,,,,,,,,,,,,,,,,,,,,,,,,,,,,,,,,,,001,41,2020_Jan_22_1339,viewing,3.1.2,60.06243755381782,
south.png,stims/wedding-2.1a.mp4,stims/wedding-2.1b.mp4,stims/wedding-2.2b.mp4,stims/wedding-2.3a.mp4,stims/wedding-2.4b.mp4,stims/wedding-2.5.mp4,stimsday2details/newpainting18.png,stimsday2details/painting2.png,stimsday2details/couple2.png,stimsday2details/newperson36.png,stimsday2details/new36.png,stimsday2details/gift2.png,stimsday2details/n2.png,stimsday2details/cn2.png,stimsday2details/t2.png,stimsday2details/ct2.png,0,11,11,11,,,,,,,,,,,,,0,0,0,0,,,,,,,,,,,,,,,,,,,,,,,,,,,,,,,2.8925802018493414,None,1630.8340864023194,None,1655.9669757392257,None,1664.966932270676,None,1681.9667196068913,1685.9500014875084,1685.966695887968,1708.9497562404722,1708.9663348160684,1712.949620428495,1712.966331555508,1736.9493954721838,1736.9660430485383,None,"['2', '2']","[55.247057512402534, 3.3687574341893196]",1680.9668444832787,1685.9500014875084,['2'],[3.4024052899330854],1707.9664037209004,1712.949620428495,,,,,,,,,,,,,,,,,,,,,,,,,,,,,,,,,,,,,,,,,,,,,,,,,,,001,41,2020_Jan_22_1339,viewing,3.1.2,60.06243755381782,
south.png,stims/wedding-2.1a.mp4,stims/wedding-2.1b.mp4,stims/wedding-2.2b.mp4,stims/wedding-2.3a.mp4,stims/wedding-2.4b.mp4,stims/wedding-2.5.mp4,stimsday2details/newpainting18.png,stimsday2details/painting2.png,stimsday2details/couple2.png,stimsday2details/newperson36.png,stimsday2details/new36.png,stimsday2details/gift2.png,stimsday2details/n2.png,stimsday2details/cn2.png,stimsday2details/t2.png,stimsday2details/ct2.png,0,11,11,11,,,,,,,,,,,,,,,,,,,,,,,,,,,,,,,,,,,,,,,,,,,,,,,,,,,,,,,,,,,,,,,,,,,,,,,,,3.8856640458106995e-05,None,1,1.4838199680671096,1757.967493398115,None,1757.967493398115,None,1757.967493398115,None,1759.949102862738,None,2,0.7354636685922742,1759.949102862738,None,1759.949102862738,None,1761.9490590998903,None,1761.9490590998903,None,1,1.3021539188921452,1761.9490590998903,None,2,1.5855862498283386,1763.9490345865488,None,1763.9490345865488,None,1763.9490345865488,None,1765.9490094734356,None,1765.9490094734356,None,2,0.9857171894982457,1765.9490094734356,None,1767.9491511620581,None,1767.9491511620581,None,2,0.4353786986321211,1767.9491511620581,None,001,41,2020_Jan_22_1339,viewing,3.1.2,60.06243755381782,
