leftimage,rightimage,trials.thisRepN,trials.thisTrialN,trials.thisN,trials.thisIndex,leftimageLoc.started,leftimageLoc.stopped,rightimageLoc.started,rightimageLoc.stopped,answer.keys,answer.rt,answer.started,answer.stopped,Q.started,Q.stopped,ITIfixation.started,ITIfixation.stopped,session,participant,date,expName,psychopyVersion,frameRate,
stimsday2details/wedding20.png,stimsday2details/wedding1.png,0,0,0,5,16.844505261047743,None,16.844505261047743,None,k,8.793213494005613,16.844505261047743,None,16.844505261047743,None,25.645328913000412,None,001,2,2019_Jun_21_1446,sequencetask,3.1.2,None,
stimsday2details/wedding23.png,stimsday2details/wedding2.png,0,1,1,0,27.41198146494571,None,27.41198146494571,None,k,7.467949331970885,27.41198146494571,None,27.41198146494571,None,34.89428805699572,None,001,2,2019_Jun_21_1446,sequencetask,3.1.2,None,
stimsday2details/wedding2.png,stimsday2details/wedding17.png,0,2,2,1,36.62790405296255,None,36.62790405296255,None,k,4.217179395956919,36.62790405296255,None,36.62790405296255,None,40.86158196500037,None,001,2,2019_Jun_21_1446,sequencetask,3.1.2,None,
stimsday2details/wedding6.png,stimsday2details/wedding19.png,0,3,3,14,42.595091748051345,None,42.595091748051345,None,l,4.332478737924248,42.595091748051345,None,42.595091748051345,None,46.947823439957574,None,001,2,2019_Jun_21_1446,sequencetask,3.1.2,None,
stimsday2details/wedding34.png,stimsday2details/wedding28.png,0,4,4,9,48.694221662939526,None,48.694221662939526,None,k,5.867066388949752,48.694221662939526,None,48.694221662939526,None,54.58194420102518,None,001,2,2019_Jun_21_1446,sequencetask,3.1.2,None,
stimsday2details/wedding38.png,stimsday2details/wedding34.png,0,5,5,8,56.330058539053425,None,56.330058539053425,None,k,7.831096075009555,56.330058539053425,None,56.330058539053425,None,64.1781822850462,None,001,2,2019_Jun_21_1446,sequencetask,3.1.2,None,
stimsday2details/wedding34.png,stimsday2details/wedding38.png,0,6,6,19,65.91129297204316,None,65.91129297204316,None,l,3.3903626470128074,65.91129297204316,None,65.91129297204316,None,69.3113606129773,None,001,2,2019_Jun_21_1446,sequencetask,3.1.2,None,
stimsday2details/wedding19.png,stimsday2details/wedding6.png,0,7,7,3,71.02793621202,None,71.02793621202,None,k,6.518457522033714,71.02793621202,None,71.02793621202,None,77.56133910501376,None,001,2,2019_Jun_21_1446,sequencetask,3.1.2,None,
stimsday2details/wedding17.png,stimsday2details/wedding19.png,0,8,8,2,79.27772338502109,None,79.27772338502109,None,l,6.8678905830020085,79.27772338502109,None,79.27772338502109,None,86.16033175494522,None,001,2,2019_Jun_21_1446,sequencetask,3.1.2,None,
stimsday2details/wedding22.png,stimsday2details/wedding38.png,0,9,9,7,87.87740412005223,None,87.87740412005223,None,l,6.932891916949302,87.87740412005223,None,87.87740412005223,None,94.83048071805388,None,001,2,2019_Jun_21_1446,sequencetask,3.1.2,None,
stimsday2details/wedding22.png,stimsday2details/wedding1.png,0,10,10,17,96.54849767300766,None,96.54849767300766,None,l,7.369479132001288,96.54849767300766,None,96.54849767300766,None,103.92743397294544,None,001,2,2019_Jun_21_1446,sequencetask,3.1.2,None,
stimsday2details/wedding28.png,stimsday2details/wedding29.png,0,11,11,10,105.66017621802166,None,105.66017621802166,None,k,1.651878245989792,105.66017621802166,None,105.66017621802166,None,107.33075472898781,None,001,2,2019_Jun_21_1446,sequencetask,3.1.2,None,
stimsday2details/wedding29.png,stimsday2details/wedding28.png,0,12,12,21,109.06030170095619,None,109.06030170095619,None,l,3.3022099330555648,109.06030170095619,None,109.06030170095619,None,112.37779692001641,None,001,2,2019_Jun_21_1446,sequencetask,3.1.2,None,
stimsday2details/wedding2.png,stimsday2details/wedding23.png,0,13,13,11,114.09361145098228,None,114.09361145098228,None,l,3.9907869460294023,114.09361145098228,None,114.09361145098228,None,118.09425108600408,None,001,2,2019_Jun_21_1446,sequencetask,3.1.2,None,
stimsday2details/wedding38.png,stimsday2details/wedding22.png,0,14,14,18,119.81045209604781,None,119.81045209604781,None,k,2.4682572529418394,119.81045209604781,None,119.81045209604781,None,122.29283555003349,None,001,2,2019_Jun_21_1446,sequencetask,3.1.2,None,
stimsday2details/wedding1.png,stimsday2details/wedding20.png,0,15,15,16,124.04340853902977,None,124.04340853902977,None,k,5.136129612918012,124.04340853902977,None,124.04340853902977,None,129.19401206297334,None,001,2,2019_Jun_21_1446,sequencetask,3.1.2,None,
stimsday2details/wedding19.png,stimsday2details/wedding17.png,0,16,16,13,130.91504908597562,None,130.91504908597562,None,k,3.185788693954237,130.91504908597562,None,130.91504908597562,None,134.11503391794395,None,001,2,2019_Jun_21_1446,sequencetask,3.1.2,None,
stimsday2details/wedding17.png,stimsday2details/wedding2.png,0,17,17,12,135.8599294340238,None,135.8599294340238,None,k,7.75242002797313,135.8599294340238,None,135.8599294340238,None,143.62742055405397,None,001,2,2019_Jun_21_1446,sequencetask,3.1.2,None,
stimsday2details/wedding20.png,stimsday2details/wedding6.png,0,18,18,15,145.3630578520242,None,145.3630578520242,None,k,3.230904167983681,145.3630578520242,None,145.3630578520242,None,148.6142579059815,None,001,2,2019_Jun_21_1446,sequencetask,3.1.2,None,
stimsday2details/wedding6.png,stimsday2details/wedding20.png,0,19,19,4,150.3643324560253,None,150.3643324560253,None,l,3.2651639099931344,150.3643324560253,None,150.3643324560253,None,153.64372786402237,None,001,2,2019_Jun_21_1446,sequencetask,3.1.2,None,
stimsday2details/wedding1.png,stimsday2details/wedding22.png,0,20,20,6,155.37692048505414,None,155.37692048505414,None,k,3.152214717003517,155.37692048505414,None,155.37692048505414,None,158.54389308101963,None,001,2,2019_Jun_21_1446,sequencetask,3.1.2,None,
stimsday2details/wedding28.png,stimsday2details/wedding34.png,0,21,21,20,160.27647974097636,None,160.27647974097636,None,k,1.7516211450565606,160.27647974097636,None,160.27647974097636,None,162.04273819504306,None,001,2,2019_Jun_21_1446,sequencetask,3.1.2,None,
