condsFile,northOrSouth,stimFile1a,stimFile1b,stimFile2,stimFile3,stimFile4,stimFile5,QeggPainting1,Qcharacter1,Qgift1,QeggPainting2,Qcharacter2,Qgift2,Qname1,Qtheme1,Qname2,Qtheme2,block.thisRepN,block.thisTrialN,block.thisN,block.thisIndex,trials.thisRepN,trials.thisTrialN,trials.thisN,trials.thisIndex,noQtrials.thisRepN,noQtrials.thisTrialN,noQtrials.thisN,noQtrials.thisIndex,Qtrials.thisRepN,Qtrials.thisTrialN,Qtrials.thisN,Qtrials.thisIndex,text.started,text.stopped,prep_trigger.keys,prep_trigger.rt,prep_trigger.started,prep_trigger.stopped,waiting.started,waiting.stopped,trigger.keys,trigger.rt,trigger.started,trigger.stopped,image_2.started,image_2.stopped,trialNoQs.started,trialNoQs.stopped,vid1a.started,vid1a.stopped,vid1b.started,vid1b.stopped,vid2.started,vid2.stopped,vid3.started,vid3.stopped,vid4.started,vid4.stopped,vid5.started,vid5.stopped,ISI2.started,ISI2.stopped,vid1a_q.started,vid1a_q.stopped,vid1b_q.started,vid1b_q.stopped,vid2_q.started,vid2_q.stopped,l2q.started,l2q.stopped,vid3_q.started,vid3_q.stopped,l3q.started,l3q.stopped,vid4_q.started,vid4_q.stopped,vid5_q.started,vid5_q.stopped,key_resp_2.keys,key_resp_2.rt,key_resp_2.started,key_resp_2.stopped,key_resp_3.keys,key_resp_3.rt,key_resp_3.started,key_resp_3.stopped,ISI7.started,ISI7.stopped,nameQresp.keys,nameQresp.started,nameQresp.stopped,nameQ1.started,nameQ1.stopped,nameQ2.started,nameQ2.stopped,eggPainting1.started,eggPainting1.stopped,eggPaintingQresp.keys,eggPaintingQresp.rt,eggPaintingQresp.started,eggPaintingQresp.stopped,eggPainting2.started,eggPainting2.stopped,character1.started,character1.stopped,character2.started,character2.stopped,Qcharacter.keys,Qcharacter.rt,Qcharacter.started,Qcharacter.stopped,themeQresp.keys,themeQresp.rt,themeQresp.started,themeQresp.stopped,themeQ1.started,themeQ1.stopped,themeQ2.started,themeQ2.stopped,gift1.started,gift1.stopped,gift2.started,gift2.stopped,giftQresp.keys,giftQresp.rt,giftQresp.started,giftQresp.stopped,northorsouth1.started,northorsouth1.stopped,northOrSouthQ.keys,northOrSouthQ.rt,northOrSouthQ.started,northOrSouthQ.stopped,northorsouth2.started,northorsouth2.stopped,nameQresp.rt,session,participant,date,expName,psychopyVersion,frameRate,
,,,,,,,,,,,,,,,,,,,,,,,,,,,,,,,,,,10.280957512906753,None,g,0.4877022790024057,10.280957512906753,None,,,,,,,,,,,,,,,,,,,,,,,,,,,,,,,,,,,,,,,,,,,,,,,,,,,,,,,,,,,,,,,,,,,,,,,,,,,,,,,,,,,,,,,,,,,,,,,,,,,001,20,2019_Oct_08_0953,Block1,3.1.2,60.00147015198866,
,,,,,,,,,,,,,,,,,,,,,,,,,,,,,,,,,,,,,,,,10.781025395961478,None,equal,19.63532319292426,10.781025395961478,None,,,,,,,,,,,,,,,,,,,,,,,,,,,,,,,,,,,,,,,,,,,,,,,,,,,,,,,,,,,,,,,,,,,,,,,,,,,,,,,,,,,,,,,,,,,,,001,20,2019_Oct_08_0953,Block1,3.1.2,60.00147015198866,
videoBlock_schemaS_pathB_2.csv,south.png,stims/wedding-32.1a.mp4,stims/wedding-32.1b.mp4,stims/wedding-32.2b.mp4,stims/wedding-32.3a.mp4,stims/wedding-32.4b.mp4,stims/wedding-32.5.mp4,stimsday1details/newpainting8.png,stimsday1details/newperson20.png,stimsday1details/new20.png,stimsday1details/painting32.png,stimsday1details/couple32.png,stimsday1details/gift32.png,stimsday1details/n32.png,stimsday1details/t32.png,stimsday1details/cn32.png,stimsday1details/ct32.png,0,0,0,4,0,0,0,0,0,0,0,0,,,,,,,,,,,,,,,,,30.464100910932757,None,None,None,None,None,None,None,None,None,None,None,None,None,None,None,,,,,,,,,,,,,,,,,,,,,,,,,,,,,,,,,,,,,,,,,,,,,,,,,,,,,,,,,,,,,,,,,,,,,,,,,,,,,001,20,2019_Oct_08_0953,Block1,3.1.2,60.00147015198866,
videoBlock_schemaS_pathB_2.csv,south.png,stims/wedding-32.1a.mp4,stims/wedding-32.1b.mp4,stims/wedding-32.2b.mp4,stims/wedding-32.3a.mp4,stims/wedding-32.4b.mp4,stims/wedding-32.5.mp4,stimsday1details/newpainting8.png,stimsday1details/newperson20.png,stimsday1details/new20.png,stimsday1details/painting32.png,stimsday1details/couple32.png,stimsday1details/gift32.png,stimsday1details/n32.png,stimsday1details/t32.png,stimsday1details/cn32.png,stimsday1details/ct32.png,0,0,0,4,0,0,0,0,,,,,0,0,0,0,,,,,,,,,,,,,,,,,,,,,,,,,,,,,2.6288738360162824,None,42.513944467995316,None,72.3968335519312,None,81.39679198293015,None,98.39656573394313,102.37984488392249,102.3965174149489,125.37957813590765,125.39616898994427,129.37951048696414,129.39612634596415,153.37916646595113,153.39588931191247,None,['1'],[3.0021197031019256],97.39658383699134,102.37984488392249,['1'],[3.4531677908962592],124.39618470997084,129.37951048696414,,,,,,,,,,,,,,,,,,,,,,,,,,,,,,,,,,,,,,,,,,,,,,,,,,,001,20,2019_Oct_08_0953,Block1,3.1.2,60.00147015198866,
videoBlock_schemaS_pathB_2.csv,south.png,stims/wedding-32.1a.mp4,stims/wedding-32.1b.mp4,stims/wedding-32.2b.mp4,stims/wedding-32.3a.mp4,stims/wedding-32.4b.mp4,stims/wedding-32.5.mp4,stimsday1details/newpainting8.png,stimsday1details/newperson20.png,stimsday1details/new20.png,stimsday1details/painting32.png,stimsday1details/couple32.png,stimsday1details/gift32.png,stimsday1details/n32.png,stimsday1details/t32.png,stimsday1details/cn32.png,stimsday1details/ct32.png,0,0,0,4,0,0,0,0,,,,,,,,,,,,,,,,,,,,,,,,,,,,,,,,,,,,,,,,,,,,,,,,,,,,,,,,,,,,,,,2.8670066967606544e-05,None,None,166.19574446196202,None,166.19574446196202,None,166.19574446196202,None,168.17902279796544,None,2,1.8033356140367687,168.17902279796544,None,168.17902279796544,None,170.17903372691944,None,170.17903372691944,None,2,0.7367396060144529,170.17903372691944,None,1,0.9364639319246635,172.1790856019361,None,172.1790856019361,None,172.1790856019361,None,174.17896881699562,None,174.17896881699562,None,2,0.7028584260260686,174.17896881699562,None,176.17896799300797,None,2,0.7367300499463454,176.17896799300797,None,176.17896799300797,None,,001,20,2019_Oct_08_0953,Block1,3.1.2,60.00147015198866,
videoBlock_schemaS_pathB_3.csv,south.png,stims/wedding-41.1a.mp4,stims/wedding-41.1b.mp4,stims/wedding-41.2b.mp4,stims/wedding-41.3a.mp4,stims/wedding-41.4b.mp4,stims/wedding-41.5.mp4,stimsday1details/painting41.png,stimsday1details/couple41.png,stimsday1details/new21.png,stimsday1details/newpainting9.png,stimsday1details/newperson21.png,stimsday1details/gift41.png,stimsday1details/cn41.png,stimsday1details/t41.png,stimsday1details/n41.png,stimsday1details/ct41.png,0,1,1,5,0,0,0,0,0,0,0,0,,,,,,,,,,,,,,,,,178.3622414849233,None,2.9819796559168026,None,187.84597481694072,217.36176872591022,217.37844070291612,226.3616679609986,226.37832836899906,None,243.3781213859329,266.36116938700434,266.37788438692223,None,290.3775476339506,None,,,,,,,,,,,,,,,,,,,,,,,,,,,,,,,,,,,,,,,,,,,,,,,,,,,,,,,,,,,,,,,,,,,,,,,,,,,,,001,20,2019_Oct_08_0953,Block1,3.1.2,60.00147015198866,
videoBlock_schemaS_pathB_3.csv,south.png,stims/wedding-41.1a.mp4,stims/wedding-41.1b.mp4,stims/wedding-41.2b.mp4,stims/wedding-41.3a.mp4,stims/wedding-41.4b.mp4,stims/wedding-41.5.mp4,stimsday1details/painting41.png,stimsday1details/couple41.png,stimsday1details/new21.png,stimsday1details/newpainting9.png,stimsday1details/newperson21.png,stimsday1details/gift41.png,stimsday1details/cn41.png,stimsday1details/t41.png,stimsday1details/n41.png,stimsday1details/ct41.png,0,1,1,5,0,0,0,0,,,,,0,0,0,0,,,,,,,,,,,,,,,,,,,,,,,,,,,,,None,None,None,None,None,None,None,None,None,None,None,None,None,None,None,None,None,None,None,,None,None,None,,None,None,,,,,,,,,,,,,,,,,,,,,,,,,,,,,,,,,,,,,,,,,,,,,,,,,,,001,20,2019_Oct_08_0953,Block1,3.1.2,60.00147015198866,
videoBlock_schemaS_pathB_3.csv,south.png,stims/wedding-41.1a.mp4,stims/wedding-41.1b.mp4,stims/wedding-41.2b.mp4,stims/wedding-41.3a.mp4,stims/wedding-41.4b.mp4,stims/wedding-41.5.mp4,stimsday1details/painting41.png,stimsday1details/couple41.png,stimsday1details/new21.png,stimsday1details/newpainting9.png,stimsday1details/newperson21.png,stimsday1details/gift41.png,stimsday1details/cn41.png,stimsday1details/t41.png,stimsday1details/n41.png,stimsday1details/ct41.png,0,1,1,5,0,0,0,0,,,,,,,,,,,,,,,,,,,,,,,,,,,,,,,,,,,,,,,,,,,,,,,,,,,,,,,,,,,,,,,3.7104939110577106e-05,None,2,308.4607271369314,None,308.4607271369314,None,308.4607271369314,None,310.44396668102127,None,1,0.7697705789469182,310.44396668102127,None,310.44396668102127,None,312.44394048291724,None,312.44394048291724,None,1,0.8699722429737449,312.44394048291724,None,1,0.7866789960535243,314.4439175759908,None,314.4439175759908,None,314.4439175759908,None,316.44389134296216,None,316.44389134296216,None,2,0.6700270170113072,316.44389134296216,None,318.4438640419394,None,2,0.7531796760158613,318.4438640419394,None,318.4438640419394,None,0.8867718810215592,001,20,2019_Oct_08_0953,Block1,3.1.2,60.00147015198866,
videoBlock_schemaS_pathA_3.csv,south.png,stims/wedding-36.1a.mp4,stims/wedding-36.1b.mp4,stims/wedding-36.2a.mp4,stims/wedding-36.3b.mp4,stims/wedding-36.4a.mp4,stims/wedding-36.5.mp4,stimsday1details/egg36.png,stimsday1details/couple36.png,stimsday1details/gift36.png,stimsday1details/newegg9.png,stimsday1details/newperson9.png,stimsday1details/new9.png,stimsday1details/n36.png,stimsday1details/t36.png,stimsday1details/cn36.png,stimsday1details/ct36.png,0,2,2,2,0,0,0,0,0,0,0,0,,,,,,,,,,,,,,,,,320.660510535934,None,2.9695669959764928,None,330.1307534399675,None,359.67675681598485,368.65992964291945,368.6765925649088,385.65971342194825,385.67638164490927,408.65943637595046,408.6760315729771,None,432.67580589291174,None,,,,,,,,,,,,,,,,,,,,,,,,,,,,,,,,,,,,,,,,,,,,,,,,,,,,,,,,,,,,,,,,,,,,,,,,,,,,,001,20,2019_Oct_08_0953,Block1,3.1.2,60.00147015198866,
videoBlock_schemaS_pathA_3.csv,south.png,stims/wedding-36.1a.mp4,stims/wedding-36.1b.mp4,stims/wedding-36.2a.mp4,stims/wedding-36.3b.mp4,stims/wedding-36.4a.mp4,stims/wedding-36.5.mp4,stimsday1details/egg36.png,stimsday1details/couple36.png,stimsday1details/gift36.png,stimsday1details/newegg9.png,stimsday1details/newperson9.png,stimsday1details/new9.png,stimsday1details/n36.png,stimsday1details/t36.png,stimsday1details/cn36.png,stimsday1details/ct36.png,0,2,2,2,0,0,0,0,,,,,0,0,0,0,,,,,,,,,,,,,,,,,,,,,,,,,,,,,None,None,None,None,None,None,None,None,None,None,None,None,None,None,None,None,None,None,None,,None,None,None,,None,None,,,,,,,,,,,,,,,,,,,,,,,,,,,,,,,,,,,,,,,,,,,,,,,,,,,001,20,2019_Oct_08_0953,Block1,3.1.2,60.00147015198866,
videoBlock_schemaS_pathA_3.csv,south.png,stims/wedding-36.1a.mp4,stims/wedding-36.1b.mp4,stims/wedding-36.2a.mp4,stims/wedding-36.3b.mp4,stims/wedding-36.4a.mp4,stims/wedding-36.5.mp4,stimsday1details/egg36.png,stimsday1details/couple36.png,stimsday1details/gift36.png,stimsday1details/newegg9.png,stimsday1details/newperson9.png,stimsday1details/new9.png,stimsday1details/n36.png,stimsday1details/t36.png,stimsday1details/cn36.png,stimsday1details/ct36.png,0,2,2,2,0,0,0,0,,,,,,,,,,,,,,,,,,,,,,,,,,,,,,,,,,,,,,,,,,,,,,,,,,,,,,,,,,,,,,,4.0723010897636414e-05,None,1,450.64447823097,None,450.64447823097,None,450.64447823097,None,452.62555607093964,None,1,0.7355342380469665,452.62555607093964,None,452.62555607093964,None,454.62554464500863,None,454.62554464500863,None,1,0.8518858109600842,454.62554464500863,None,1,0.9355803499929607,456.6255098829279,None,456.6255098829279,None,456.6255098829279,None,458.62543197500054,None,458.62543197500054,None,1,0.8685129360528663,458.62543197500054,None,460.62542854994535,None,2,0.7188393520191312,460.62542854994535,None,460.62542854994535,None,0.7167531040031463,001,20,2019_Oct_08_0953,Block1,3.1.2,60.00147015198866,
videoBlock_schemaS_pathA_1.csv,south.png,stims/wedding-14.1a.mp4,stims/wedding-14.1b.mp4,stims/wedding-14.2a.mp4,stims/wedding-14.3b.mp4,stims/wedding-14.4a.mp4,stims/wedding-14.5.mp4,stimsday1details/newegg7.png,stimsday1details/newperson7.png,stimsday1details/gift14.png,stimsday1details/egg14.png,stimsday1details/couple14.png,stimsday1details/new7.png,stimsday1details/n14.png,stimsday1details/t14.png,stimsday1details/cn14.png,stimsday1details/ct14.png,0,3,3,0,0,0,0,0,0,0,0,0,,,,,,,,,,,,,,,,,462.8755142149748,None,2.8648437679512426,None,472.24193097592797,501.8749133129604,501.89161632501055,None,510.89151846501045,None,527.8914510069881,550.8743604659103,550.8910329089267,574.874123218935,574.8906737680081,None,,,,,,,,,,,,,,,,,,,,,,,,,,,,,,,,,,,,,,,,,,,,,,,,,,,,,,,,,,,,,,,,,,,,,,,,,,,,,001,20,2019_Oct_08_0953,Block1,3.1.2,60.00147015198866,
videoBlock_schemaS_pathA_1.csv,south.png,stims/wedding-14.1a.mp4,stims/wedding-14.1b.mp4,stims/wedding-14.2a.mp4,stims/wedding-14.3b.mp4,stims/wedding-14.4a.mp4,stims/wedding-14.5.mp4,stimsday1details/newegg7.png,stimsday1details/newperson7.png,stimsday1details/gift14.png,stimsday1details/egg14.png,stimsday1details/couple14.png,stimsday1details/new7.png,stimsday1details/n14.png,stimsday1details/t14.png,stimsday1details/cn14.png,stimsday1details/ct14.png,0,3,3,0,0,0,0,0,,,,,0,0,0,0,,,,,,,,,,,,,,,,,,,,,,,,,,,,,None,None,None,None,None,None,None,None,None,None,None,None,None,None,None,None,None,None,None,,None,None,None,,None,None,,,,,,,,,,,,,,,,,,,,,,,,,,,,,,,,,,,,,,,,,,,,,,,,,,,001,20,2019_Oct_08_0953,Block1,3.1.2,60.00147015198866,
videoBlock_schemaS_pathA_1.csv,south.png,stims/wedding-14.1a.mp4,stims/wedding-14.1b.mp4,stims/wedding-14.2a.mp4,stims/wedding-14.3b.mp4,stims/wedding-14.4a.mp4,stims/wedding-14.5.mp4,stimsday1details/newegg7.png,stimsday1details/newperson7.png,stimsday1details/gift14.png,stimsday1details/egg14.png,stimsday1details/couple14.png,stimsday1details/new7.png,stimsday1details/n14.png,stimsday1details/t14.png,stimsday1details/cn14.png,stimsday1details/ct14.png,0,3,3,0,0,0,0,0,,,,,,,,,,,,,,,,,,,,,,,,,,,,,,,,,,,,,,,,,,,,,,,,,,,,,,,,,,,,,,,4.013301804661751e-05,None,1,592.5238496069796,None,592.5238496069796,None,592.5238496069796,None,594.5071029909886,None,2,0.73537968902383,594.5071029909886,None,594.5071029909886,None,596.5071308849147,None,596.5071308849147,None,2,0.7186073460616171,596.5071308849147,None,1,0.902003824012354,598.507107413956,None,598.507107413956,None,598.507107413956,None,600.5070879099658,None,600.5070879099658,None,1,0.6354834000812843,600.5070879099658,None,602.5070721409284,None,2,0.6188949350034818,602.5070721409284,None,602.5070721409284,None,1.2187186230439693,001,20,2019_Oct_08_0953,Block1,3.1.2,60.00147015198866,
videoBlock_schemaS_pathB_1.csv,south.png,stims/wedding-39.1a.mp4,stims/wedding-39.1b.mp4,stims/wedding-39.2b.mp4,stims/wedding-39.3a.mp4,stims/wedding-39.4b.mp4,stims/wedding-39.5.mp4,stimsday1details/newpainting7.png,stimsday1details/newperson19.png,stimsday1details/gift39.png,stimsday1details/painting39.png,stimsday1details/couple39.png,stimsday1details/new19.png,stimsday1details/n39.png,stimsday1details/t39.png,stimsday1details/cn39.png,stimsday1details/ct39.png,0,4,4,3,0,0,0,0,0,0,0,0,,,,,,,,,,,,,,,,,604.7903665349586,None,2.8466104390099645,None,614.1402691279072,None,643.8065564349527,None,652.8064398759743,669.7896037399769,669.8062426389661,692.7892837260151,692.8059710059315,716.7890685820021,716.8056612309301,None,,,,,,,,,,,,,,,,,,,,,,,,,,,,,,,,,,,,,,,,,,,,,,,,,,,,,,,,,,,,,,,,,,,,,,,,,,,,,001,20,2019_Oct_08_0953,Block1,3.1.2,60.00147015198866,
videoBlock_schemaS_pathB_1.csv,south.png,stims/wedding-39.1a.mp4,stims/wedding-39.1b.mp4,stims/wedding-39.2b.mp4,stims/wedding-39.3a.mp4,stims/wedding-39.4b.mp4,stims/wedding-39.5.mp4,stimsday1details/newpainting7.png,stimsday1details/newperson19.png,stimsday1details/gift39.png,stimsday1details/painting39.png,stimsday1details/couple39.png,stimsday1details/new19.png,stimsday1details/n39.png,stimsday1details/t39.png,stimsday1details/cn39.png,stimsday1details/ct39.png,0,4,4,3,0,0,0,0,,,,,0,0,0,0,,,,,,,,,,,,,,,,,,,,,,,,,,,,,None,None,None,None,None,None,None,None,None,None,None,None,None,None,None,None,None,None,None,,None,None,None,,None,None,,,,,,,,,,,,,,,,,,,,,,,,,,,,,,,,,,,,,,,,,,,,,,,,,,,001,20,2019_Oct_08_0953,Block1,3.1.2,60.00147015198866,
videoBlock_schemaS_pathB_1.csv,south.png,stims/wedding-39.1a.mp4,stims/wedding-39.1b.mp4,stims/wedding-39.2b.mp4,stims/wedding-39.3a.mp4,stims/wedding-39.4b.mp4,stims/wedding-39.5.mp4,stimsday1details/newpainting7.png,stimsday1details/newperson19.png,stimsday1details/gift39.png,stimsday1details/painting39.png,stimsday1details/couple39.png,stimsday1details/new19.png,stimsday1details/n39.png,stimsday1details/t39.png,stimsday1details/cn39.png,stimsday1details/ct39.png,0,4,4,3,0,0,0,0,,,,,,,,,,,,,,,,,,,,,,,,,,,,,,,,,,,,,,,,,,,,,,,,,,,,,,,,,,,,,,,5.4687028750777245e-05,None,1,734.1887225039536,None,734.1887225039536,None,734.1887225039536,None,736.1720338099403,None,2,0.7853311829967424,736.1720338099403,None,736.1720338099403,None,738.1720177970128,None,738.1720177970128,None,2,1.1018778319703415,738.1720177970128,None,1,0.8523087950889021,740.1719717119122,None,740.1719717119122,None,740.1719717119122,None,742.1719631029991,None,742.1719631029991,None,1,0.8183920650044456,742.1719631029991,None,744.1719330709893,None,2,0.6684236690634862,744.1719330709893,None,744.1719330709893,None,1.9523164400598034,001,20,2019_Oct_08_0953,Block1,3.1.2,60.00147015198866,
videoBlock_schemaS_pathA_2.csv,south.png,stims/wedding-25.1a.mp4,stims/wedding-25.1b.mp4,stims/wedding-25.2a.mp4,stims/wedding-25.3b.mp4,stims/wedding-25.4a.mp4,stims/wedding-25.5.mp4,stimsday1details/egg25.png,stimsday1details/couple25.png,stimsday1details/gift25.png,stimsday1details/newegg8.png,stimsday1details/newperson8.png,stimsday1details/new8.png,stimsday1details/cn25.png,stimsday1details/ct25.png,stimsday1details/n25.png,stimsday1details/t25.png,0,5,5,1,0,0,0,0,0,0,0,0,,,,,,,,,,,,,,,,,746.4718910889933,None,None,None,None,None,None,None,None,None,None,None,None,None,None,None,,,,,,,,,,,,,,,,,,,,,,,,,,,,,,,,,,,,,,,,,,,,,,,,,,,,,,,,,,,,,,,,,,,,,,,,,,,,,001,20,2019_Oct_08_0953,Block1,3.1.2,60.00147015198866,
videoBlock_schemaS_pathA_2.csv,south.png,stims/wedding-25.1a.mp4,stims/wedding-25.1b.mp4,stims/wedding-25.2a.mp4,stims/wedding-25.3b.mp4,stims/wedding-25.4a.mp4,stims/wedding-25.5.mp4,stimsday1details/egg25.png,stimsday1details/couple25.png,stimsday1details/gift25.png,stimsday1details/newegg8.png,stimsday1details/newperson8.png,stimsday1details/new8.png,stimsday1details/cn25.png,stimsday1details/ct25.png,stimsday1details/n25.png,stimsday1details/t25.png,0,5,5,1,0,0,0,0,,,,,0,0,0,0,,,,,,,,,,,,,,,,,,,,,,,,,,,,,2.9172716119792312,None,759.0584598570131,788.6381050029304,788.6547983209603,None,797.6545942149824,None,814.6544512519613,818.637679041014,818.654408294009,841.6374552909983,841.6541187509429,845.6374048870057,845.6540764549281,869.6370786119951,869.6537773009622,None,['2'],[2.6688358660321683],813.6544754119823,818.637679041014,['1'],[1.6022767290705815],840.6541456339182,845.6374048870057,,,,,,,,,,,,,,,,,,,,,,,,,,,,,,,,,,,,,,,,,,,,,,,,,,,001,20,2019_Oct_08_0953,Block1,3.1.2,60.00147015198866,
videoBlock_schemaS_pathA_2.csv,south.png,stims/wedding-25.1a.mp4,stims/wedding-25.1b.mp4,stims/wedding-25.2a.mp4,stims/wedding-25.3b.mp4,stims/wedding-25.4a.mp4,stims/wedding-25.5.mp4,stimsday1details/egg25.png,stimsday1details/couple25.png,stimsday1details/gift25.png,stimsday1details/newegg8.png,stimsday1details/newperson8.png,stimsday1details/new8.png,stimsday1details/cn25.png,stimsday1details/ct25.png,stimsday1details/n25.png,stimsday1details/t25.png,0,5,5,1,0,0,0,0,,,,,,,,,,,,,,,,,,,,,,,,,,,,,,,,,,,,,,,,,,,,,,,,,,,,,,,,,,,,,,,1.848104875534773e-05,None,2,884.0573485199129,None,884.0573485199129,None,884.0573485199129,None,886.0535817199852,None,1,0.6866047669900581,886.0535817199852,None,886.0535817199852,None,888.0535533690127,None,888.0535533690127,None,1,0.8197095030918717,888.0535533690127,None,2,0.870739414007403,890.0535295769805,None,890.0535295769805,None,890.0535295769805,None,892.053503701929,None,892.053503701929,None,1,0.6368907549185678,892.053503701929,None,894.0534769279184,None,2,0.7029410790419206,894.0534769279184,None,894.0534769279184,None,0.8834223439916968,001,20,2019_Oct_08_0953,Block1,3.1.2,60.00147015198866,
