northOrSouth,stimFile1a,stimFile1b,stimFile2,stimFile3,stimFile4,stimFile5,Qeggpainting1,Qeggpainting2,Qcharacter1,Qcharacter2,Qgift1,Qgift2,Qname1,Qname2,Qtheme1,Qtheme2,trials.thisRepN,trials.thisTrialN,trials.thisN,trials.thisIndex,South.thisRepN,South.thisTrialN,South.thisN,South.thisIndex,North.thisRepN,North.thisTrialN,North.thisN,North.thisIndex,noQtrials.thisRepN,noQtrials.thisTrialN,noQtrials.thisN,noQtrials.thisIndex,Qtrials.thisRepN,Qtrials.thisTrialN,Qtrials.thisN,Qtrials.thisIndex,text.started,text.stopped,prep_trigger.keys,prep_trigger.rt,prep_trigger.started,prep_trigger.stopped,waiting.started,waiting.stopped,trigger.keys,trigger.rt,trigger.started,trigger.stopped,southCueImage.started,southCueImage.stopped,northCueImage.started,northCueImage.stopped,trialNoQs.started,trialNoQs.stopped,vid1a.started,vid1a.stopped,vid1b.started,vid1b.stopped,vid2.started,vid2.stopped,vid3.started,vid3.stopped,vid4.started,vid4.stopped,vid5.started,vid5.stopped,ISI2.started,ISI2.stopped,vid1a_q.started,vid1a_q.stopped,vid1b_q.started,vid1b_q.stopped,vid2_q.started,vid2_q.stopped,l2q.started,l2q.stopped,vid3_q.started,vid3_q.stopped,l3q.started,l3q.stopped,vid4_q.started,vid4_q.stopped,vid5_q.started,vid5_q.stopped,key_resp_2.keys,key_resp_2.rt,key_resp_2.started,key_resp_2.stopped,key_resp_3.keys,key_resp_3.rt,key_resp_3.started,key_resp_3.stopped,ISI7.started,ISI7.stopped,nameQresp.keys,nameQresp.rt,nameQresp.started,nameQresp.stopped,nameQ1.started,nameQ1.stopped,nameQ2.started,nameQ2.stopped,eggPainting1.started,eggPainting1.stopped,eggPaintingQresp.keys,eggPaintingQresp.rt,eggPaintingQresp.started,eggPaintingQresp.stopped,eggPainting2.started,eggPainting2.stopped,character1.started,character1.stopped,character2.started,character2.stopped,Qcharacter.keys,Qcharacter.rt,Qcharacter.started,Qcharacter.stopped,themeQresp.keys,themeQresp.rt,themeQresp.started,themeQresp.stopped,themeQ1.started,themeQ1.stopped,themeQ2.started,themeQ2.stopped,gift1.started,gift1.stopped,gift2.started,gift2.stopped,giftQresp.keys,giftQresp.rt,giftQresp.started,giftQresp.stopped,northorsouth1.started,northorsouth1.stopped,northorsouth2.started,northorsouth2.stopped,northOrSouthQ.keys,northOrSouthQ.rt,northOrSouthQ.started,northOrSouthQ.stopped,session,participant,date,expName,psychopyVersion,frameRate,
,,,,,,,,,,,,,,,,,,,,,,,,,,,,,,,,,,,,,5.124606322497129,None,g,0.35434887185692787,5.124606322497129,None,,,,,,,,,,,,,,,,,,,,,,,,,,,,,,,,,,,,,,,,,,,,,,,,,,,,,,,,,,,,,,,,,,,,,,,,,,,,,,,,,,,,,,,,,,,,,,,,,,,,,001,35,2020_Jan_08_1536,viewing,3.1.2,60.86227436107106,
,,,,,,,,,,,,,,,,,,,,,,,,,,,,,,,,,,,,,,,,,,,5.491326403804123,None,equal,32.76853701937944,5.491326403804123,None,,,,,,,,,,,,,,,,,,,,,,,,,,,,,,,,,,,,,,,,,,,,,,,,,,,,,,,,,,,,,,,,,,,,,,,,,,,,,,,,,,,,,,,,,,,,,,,001,35,2020_Jan_08_1536,viewing,3.1.2,60.86227436107106,
south.png,stims/wedding-1.1a.mp4,stims/wedding-1.1b.mp4,stims/wedding-1.2a.mp4,stims/wedding-1.3b.mp4,stims/wedding-1.4a.mp4,stims/wedding-1.5.mp4,stimsday2details/egg1.png,stimsday2details/newegg13.png,stimsday2details/newperson25.png,stimsday2details/couple1.png,stimsday2details/new25.png,stimsday2details/gift1.png,stimsday2details/cn1.png,stimsday2details/n1.png,stimsday2details/ct1.png,stimsday2details/t1.png,0,0,0,0,0,0,0,0,,,,,,,,,,,,,,,,,,,,,,,,,38.30759817082435,None,,,,,,,,,,,,,,,,,,,,,,,,,,,,,,,,,,,,,,,,,,,,,,,,,,,,,,,,,,,,,,,,,,,,,,,,,,,,,,,,,,,,,,,,,,,,,001,35,2020_Jan_08_1536,viewing,3.1.2,60.86227436107106,
south.png,stims/wedding-1.1a.mp4,stims/wedding-1.1b.mp4,stims/wedding-1.2a.mp4,stims/wedding-1.3b.mp4,stims/wedding-1.4a.mp4,stims/wedding-1.5.mp4,stimsday2details/egg1.png,stimsday2details/newegg13.png,stimsday2details/newperson25.png,stimsday2details/couple1.png,stimsday2details/new25.png,stimsday2details/gift1.png,stimsday2details/cn1.png,stimsday2details/n1.png,stimsday2details/ct1.png,stimsday2details/t1.png,0,0,0,0,,,,,0,0,0,0,,,,,,,,,,,,,,,,,,,,,,,None,None,,,,,,,,,,,,,,,,,,,,,,,,,,,,,,,,,,,,,,,,,,,,,,,,,,,,,,,,,,,,,,,,,,,,,,,,,,,,,,,,,,,,,,,,,,,001,35,2020_Jan_08_1536,viewing,3.1.2,60.86227436107106,
south.png,stims/wedding-1.1a.mp4,stims/wedding-1.1b.mp4,stims/wedding-1.2a.mp4,stims/wedding-1.3b.mp4,stims/wedding-1.4a.mp4,stims/wedding-1.5.mp4,stimsday2details/egg1.png,stimsday2details/newegg13.png,stimsday2details/newperson25.png,stimsday2details/couple1.png,stimsday2details/new25.png,stimsday2details/gift1.png,stimsday2details/cn1.png,stimsday2details/n1.png,stimsday2details/ct1.png,stimsday2details/t1.png,0,0,0,0,,,,,,,,,0,0,0,0,,,,,,,,,,,,,,,,,,,,,None,None,None,None,None,None,None,None,None,None,None,None,None,None,,,,,,,,,,,,,,,,,,,,,,,,,,,,,,,,,,,,,,,,,,,,,,,,,,,,,,,,,,,,,,,,,,,,,,,,,,,,,001,35,2020_Jan_08_1536,viewing,3.1.2,60.86227436107106,
south.png,stims/wedding-1.1a.mp4,stims/wedding-1.1b.mp4,stims/wedding-1.2a.mp4,stims/wedding-1.3b.mp4,stims/wedding-1.4a.mp4,stims/wedding-1.5.mp4,stimsday2details/egg1.png,stimsday2details/newegg13.png,stimsday2details/newperson25.png,stimsday2details/couple1.png,stimsday2details/new25.png,stimsday2details/gift1.png,stimsday2details/cn1.png,stimsday2details/n1.png,stimsday2details/ct1.png,stimsday2details/t1.png,0,0,0,0,,,,,,,,,,,,,0,0,0,0,,,,,,,,,,,,,,,,,,,,,,,,,,,,,,,2.834396799094975,None,51.35767062660307,76.5239724162966,76.54044780507684,None,85.54033852368593,102.52345525473356,102.54012949299067,106.52340517193079,106.5400758003816,129.52312267478555,129.53976330533624,133.52307274006307,133.5397396516055,None,157.5394498826936,None,['2'],[2.3525132229551673],101.54014136176556,106.52340517193079,['1'],[2.8354642745107412],128.53979643527418,133.52307274006307,,,,,,,,,,,,,,,,,,,,,,,,,,,,,,,,,,,,,,,,,,,,,,,,,,,001,35,2020_Jan_08_1536,viewing,3.1.2,60.86227436107106,
south.png,stims/wedding-1.1a.mp4,stims/wedding-1.1b.mp4,stims/wedding-1.2a.mp4,stims/wedding-1.3b.mp4,stims/wedding-1.4a.mp4,stims/wedding-1.5.mp4,stimsday2details/egg1.png,stimsday2details/newegg13.png,stimsday2details/newperson25.png,stimsday2details/couple1.png,stimsday2details/new25.png,stimsday2details/gift1.png,stimsday2details/cn1.png,stimsday2details/n1.png,stimsday2details/ct1.png,stimsday2details/t1.png,0,0,0,0,,,,,,,,,,,,,,,,,,,,,,,,,,,,,,,,,,,,,,,,,,,,,,,,,,,,,,,,,,,,,,,,,,,,,,,,,2.5408342480659485e-05,None,2,0.916705478914082,178.0726816970855,None,178.0726816970855,None,178.0726816970855,None,180.0560452863574,None,1,0.7188475839793682,180.0560452863574,None,180.0560452863574,None,182.05581763666123,None,182.05581763666123,None,2,0.8016932113096118,182.05581763666123,None,2,1.0519123207777739,184.05573231820017,None,184.05573231820017,None,184.05573231820017,None,186.05584896449,None,186.05584896449,None,2,1.0182733926922083,186.05584896449,None,188.0557439578697,None,188.0557439578697,None,2,0.8017825735732913,188.0557439578697,None,001,35,2020_Jan_08_1536,viewing,3.1.2,60.86227436107106,
north.png,stims/wedding-23.1a.mp4,stims/wedding-23.1b.mp4,stims/wedding-23.2a.mp4,stims/wedding-23.3a.mp4,stims/wedding-23.4a.mp4,stims/wedding-23.5.mp4,stimsday2details/egg23.png,stimsday2details/newegg14.png,stimsday2details/newperson26.png,stimsday2details/couple23.png,stimsday2details/new26.png,stimsday2details/gift23.png,stimsday2details/n23.png,stimsday2details/cn23.png,stimsday2details/t23.png,stimsday2details/ct23.png,0,1,1,1,0,0,0,0,,,,,,,,,,,,,,,,,,,,,,,,,None,None,,,,,,,,,,,,,,,,,,,,,,,,,,,,,,,,,,,,,,,,,,,,,,,,,,,,,,,,,,,,,,,,,,,,,,,,,,,,,,,,,,,,,,,,,,,,,001,35,2020_Jan_08_1536,viewing,3.1.2,60.86227436107106,
north.png,stims/wedding-23.1a.mp4,stims/wedding-23.1b.mp4,stims/wedding-23.2a.mp4,stims/wedding-23.3a.mp4,stims/wedding-23.4a.mp4,stims/wedding-23.5.mp4,stimsday2details/egg23.png,stimsday2details/newegg14.png,stimsday2details/newperson26.png,stimsday2details/couple23.png,stimsday2details/new26.png,stimsday2details/gift23.png,stimsday2details/n23.png,stimsday2details/cn23.png,stimsday2details/t23.png,stimsday2details/ct23.png,0,1,1,1,,,,,0,0,0,0,,,,,,,,,,,,,,,,,,,,,,,190.1056458754465,None,,,,,,,,,,,,,,,,,,,,,,,,,,,,,,,,,,,,,,,,,,,,,,,,,,,,,,,,,,,,,,,,,,,,,,,,,,,,,,,,,,,,,,,,,,,001,35,2020_Jan_08_1536,viewing,3.1.2,60.86227436107106,
north.png,stims/wedding-23.1a.mp4,stims/wedding-23.1b.mp4,stims/wedding-23.2a.mp4,stims/wedding-23.3a.mp4,stims/wedding-23.4a.mp4,stims/wedding-23.5.mp4,stimsday2details/egg23.png,stimsday2details/newegg14.png,stimsday2details/newperson26.png,stimsday2details/couple23.png,stimsday2details/new26.png,stimsday2details/gift23.png,stimsday2details/n23.png,stimsday2details/cn23.png,stimsday2details/t23.png,stimsday2details/ct23.png,0,1,1,1,,,,,,,,,0,0,0,0,,,,,,,,,,,,,,,,,,,,,2.9941734848544,None,200.15558768901974,225.15526753291488,225.172108348459,None,234.17198076471686,251.15488800499588,251.171616374515,274.15466310363263,274.1714994115755,298.1543594934046,298.17107117176056,None,,,,,,,,,,,,,,,,,,,,,,,,,,,,,,,,,,,,,,,,,,,,,,,,,,,,,,,,,,,,,,,,,,,,,,,,,,,,,001,35,2020_Jan_08_1536,viewing,3.1.2,60.86227436107106,
north.png,stims/wedding-23.1a.mp4,stims/wedding-23.1b.mp4,stims/wedding-23.2a.mp4,stims/wedding-23.3a.mp4,stims/wedding-23.4a.mp4,stims/wedding-23.5.mp4,stimsday2details/egg23.png,stimsday2details/newegg14.png,stimsday2details/newperson26.png,stimsday2details/couple23.png,stimsday2details/new26.png,stimsday2details/gift23.png,stimsday2details/n23.png,stimsday2details/cn23.png,stimsday2details/t23.png,stimsday2details/ct23.png,0,1,1,1,,,,,,,,,,,,,0,0,0,0,,,,,,,,,,,,,,,,,,,,,,,,,,,,,,,None,None,None,None,None,None,None,None,None,None,None,None,None,None,None,None,None,None,None,,None,None,None,,None,None,,,,,,,,,,,,,,,,,,,,,,,,,,,,,,,,,,,,,,,,,,,,,,,,,,,001,35,2020_Jan_08_1536,viewing,3.1.2,60.86227436107106,
north.png,stims/wedding-23.1a.mp4,stims/wedding-23.1b.mp4,stims/wedding-23.2a.mp4,stims/wedding-23.3a.mp4,stims/wedding-23.4a.mp4,stims/wedding-23.5.mp4,stimsday2details/egg23.png,stimsday2details/newegg14.png,stimsday2details/newperson26.png,stimsday2details/couple23.png,stimsday2details/new26.png,stimsday2details/gift23.png,stimsday2details/n23.png,stimsday2details/cn23.png,stimsday2details/t23.png,stimsday2details/ct23.png,0,1,1,1,,,,,,,,,,,,,,,,,,,,,,,,,,,,,,,,,,,,,,,,,,,,,,,,,,,,,,,,,,,,,,,,,,,,,,,,,3.448501229286194e-05,None,1,0.9373221024870872,322.3040619492531,None,322.3040619492531,None,322.3040619492531,None,324.28736772947013,None,1,0.5688537517562509,324.28736772947013,None,324.28736772947013,None,326.2873540725559,None,326.2873540725559,None,2,0.9351834403350949,326.2873540725559,None,1,0.7519857324659824,328.28732610307634,None,328.28732610307634,None,328.28732610307634,None,330.28730045072734,None,330.28730045072734,None,2,0.7518896358087659,330.28730045072734,None,332.2872096532956,None,332.2872096532956,None,1,1.1019575279206038,332.2872096532956,None,001,35,2020_Jan_08_1536,viewing,3.1.2,60.86227436107106,
north.png,stims/wedding-29.1a.mp4,stims/wedding-29.1b.mp4,stims/wedding-29.2b.mp4,stims/wedding-29.3b.mp4,stims/wedding-29.4b.mp4,stims/wedding-29.5.mp4,stimsday2details/painting29.png,stimsday2details/newpainting13.png,stimsday2details/couple29.png,stimsday2details/newperson27.png,stimsday2details/new27.png,stimsday2details/gift29.png,stimsday2details/n29.png,stimsday2details/cn29.png,stimsday2details/ct29.png,stimsday2details/t29.png,0,2,2,2,0,0,0,0,,,,,,,,,,,,,,,,,,,,,,,,,None,None,,,,,,,,,,,,,,,,,,,,,,,,,,,,,,,,,,,,,,,,,,,,,,,,,,,,,,,,,,,,,,,,,,,,,,,,,,,,,,,,,,,,,,,,,,,,,001,35,2020_Jan_08_1536,viewing,3.1.2,60.86227436107106,
north.png,stims/wedding-29.1a.mp4,stims/wedding-29.1b.mp4,stims/wedding-29.2b.mp4,stims/wedding-29.3b.mp4,stims/wedding-29.4b.mp4,stims/wedding-29.5.mp4,stimsday2details/painting29.png,stimsday2details/newpainting13.png,stimsday2details/couple29.png,stimsday2details/newperson27.png,stimsday2details/new27.png,stimsday2details/gift29.png,stimsday2details/n29.png,stimsday2details/cn29.png,stimsday2details/ct29.png,stimsday2details/t29.png,0,2,2,2,,,,,0,0,0,0,,,,,,,,,,,,,,,,,,,,,,,334.3540221275762,None,,,,,,,,,,,,,,,,,,,,,,,,,,,,,,,,,,,,,,,,,,,,,,,,,,,,,,,,,,,,,,,,,,,,,,,,,,,,,,,,,,,,,,,,,,,001,35,2020_Jan_08_1536,viewing,3.1.2,60.86227436107106,
north.png,stims/wedding-29.1a.mp4,stims/wedding-29.1b.mp4,stims/wedding-29.2b.mp4,stims/wedding-29.3b.mp4,stims/wedding-29.4b.mp4,stims/wedding-29.5.mp4,stimsday2details/painting29.png,stimsday2details/newpainting13.png,stimsday2details/couple29.png,stimsday2details/newperson27.png,stimsday2details/new27.png,stimsday2details/gift29.png,stimsday2details/n29.png,stimsday2details/cn29.png,stimsday2details/ct29.png,stimsday2details/t29.png,0,2,2,2,,,,,,,,,0,0,0,0,,,,,,,,,,,,,,,,,,,,,2.8422752376645803,None,344.27061402145773,369.4368072329089,369.4368072329089,None,378.43686588667333,None,395.43648326862603,418.4363914774731,418.4363914774731,None,442.43583835382015,None,,,,,,,,,,,,,,,,,,,,,,,,,,,,,,,,,,,,,,,,,,,,,,,,,,,,,,,,,,,,,,,,,,,,,,,,,,,,,001,35,2020_Jan_08_1536,viewing,3.1.2,60.86227436107106,
north.png,stims/wedding-29.1a.mp4,stims/wedding-29.1b.mp4,stims/wedding-29.2b.mp4,stims/wedding-29.3b.mp4,stims/wedding-29.4b.mp4,stims/wedding-29.5.mp4,stimsday2details/painting29.png,stimsday2details/newpainting13.png,stimsday2details/couple29.png,stimsday2details/newperson27.png,stimsday2details/new27.png,stimsday2details/gift29.png,stimsday2details/n29.png,stimsday2details/cn29.png,stimsday2details/ct29.png,stimsday2details/t29.png,0,2,2,2,,,,,,,,,,,,,0,0,0,0,,,,,,,,,,,,,,,,,,,,,,,,,,,,,,,None,None,None,None,None,None,None,None,None,None,None,None,None,None,None,None,None,None,None,,None,None,None,,None,None,,,,,,,,,,,,,,,,,,,,,,,,,,,,,,,,,,,,,,,,,,,,,,,,,,,001,35,2020_Jan_08_1536,viewing,3.1.2,60.86227436107106,
north.png,stims/wedding-29.1a.mp4,stims/wedding-29.1b.mp4,stims/wedding-29.2b.mp4,stims/wedding-29.3b.mp4,stims/wedding-29.4b.mp4,stims/wedding-29.5.mp4,stimsday2details/painting29.png,stimsday2details/newpainting13.png,stimsday2details/couple29.png,stimsday2details/newperson27.png,stimsday2details/new27.png,stimsday2details/gift29.png,stimsday2details/n29.png,stimsday2details/cn29.png,stimsday2details/ct29.png,stimsday2details/t29.png,0,2,2,2,,,,,,,,,,,,,,,,,,,,,,,,,,,,,,,,,,,,,,,,,,,,,,,,,,,,,,,,,,,,,,,,,,,,,,,,,4.6215951442718506e-05,None,1,0.8694544937461615,465.852208821103,None,465.852208821103,None,465.852208821103,None,467.8357144165784,None,1,0.5686553260311484,467.8357144165784,None,467.8357144165784,None,469.8355551408604,None,469.8355551408604,None,1,0.7520844573155046,469.8355551408604,None,2,1.1022654986009002,471.835506927222,None,471.835506927222,None,471.835506927222,None,473.8354182317853,None,473.8354182317853,None,2,1.352285753004253,473.8354182317853,None,475.835476571694,None,475.835476571694,None,1,0.93551064748317,475.835476571694,None,001,35,2020_Jan_08_1536,viewing,3.1.2,60.86227436107106,
south.png,stims/wedding-2.1a.mp4,stims/wedding-2.1b.mp4,stims/wedding-2.2b.mp4,stims/wedding-2.3a.mp4,stims/wedding-2.4b.mp4,stims/wedding-2.5.mp4,stimsday2details/painting2.png,stimsday2details/newpainting14.png,stimsday2details/newperson28.png,stimsday2details/couple2.png,stimsday2details/gift2.png,stimsday2details/new28.png,stimsday2details/cn2.png,stimsday2details/n2.png,stimsday2details/t2.png,stimsday2details/ct2.png,0,3,3,3,0,0,0,0,,,,,,,,,,,,,,,,,,,,,,,,,477.8356698593125,None,,,,,,,,,,,,,,,,,,,,,,,,,,,,,,,,,,,,,,,,,,,,,,,,,,,,,,,,,,,,,,,,,,,,,,,,,,,,,,,,,,,,,,,,,,,,,001,35,2020_Jan_08_1536,viewing,3.1.2,60.86227436107106,
south.png,stims/wedding-2.1a.mp4,stims/wedding-2.1b.mp4,stims/wedding-2.2b.mp4,stims/wedding-2.3a.mp4,stims/wedding-2.4b.mp4,stims/wedding-2.5.mp4,stimsday2details/painting2.png,stimsday2details/newpainting14.png,stimsday2details/newperson28.png,stimsday2details/couple2.png,stimsday2details/gift2.png,stimsday2details/new28.png,stimsday2details/cn2.png,stimsday2details/n2.png,stimsday2details/t2.png,stimsday2details/ct2.png,0,3,3,3,,,,,0,0,0,0,,,,,,,,,,,,,,,,,,,,,,,None,None,,,,,,,,,,,,,,,,,,,,,,,,,,,,,,,,,,,,,,,,,,,,,,,,,,,,,,,,,,,,,,,,,,,,,,,,,,,,,,,,,,,,,,,,,,,001,35,2020_Jan_08_1536,viewing,3.1.2,60.86227436107106,
south.png,stims/wedding-2.1a.mp4,stims/wedding-2.1b.mp4,stims/wedding-2.2b.mp4,stims/wedding-2.3a.mp4,stims/wedding-2.4b.mp4,stims/wedding-2.5.mp4,stimsday2details/painting2.png,stimsday2details/newpainting14.png,stimsday2details/newperson28.png,stimsday2details/couple2.png,stimsday2details/gift2.png,stimsday2details/new28.png,stimsday2details/cn2.png,stimsday2details/n2.png,stimsday2details/t2.png,stimsday2details/ct2.png,0,3,3,3,,,,,,,,,0,0,0,0,,,,,,,,,,,,,,,,,,,,,3.154641835950315,None,488.2520576464012,None,513.1018168302253,None,522.1017443528399,None,539.1015361910686,562.0845846738666,562.1012708321214,586.0840278454125,586.1007604086772,None,,,,,,,,,,,,,,,,,,,,,,,,,,,,,,,,,,,,,,,,,,,,,,,,,,,,,,,,,,,,,,,,,,,,,,,,,,,,,001,35,2020_Jan_08_1536,viewing,3.1.2,60.86227436107106,
south.png,stims/wedding-2.1a.mp4,stims/wedding-2.1b.mp4,stims/wedding-2.2b.mp4,stims/wedding-2.3a.mp4,stims/wedding-2.4b.mp4,stims/wedding-2.5.mp4,stimsday2details/painting2.png,stimsday2details/newpainting14.png,stimsday2details/newperson28.png,stimsday2details/couple2.png,stimsday2details/gift2.png,stimsday2details/new28.png,stimsday2details/cn2.png,stimsday2details/n2.png,stimsday2details/t2.png,stimsday2details/ct2.png,0,3,3,3,,,,,,,,,,,,,0,0,0,0,,,,,,,,,,,,,,,,,,,,,,,,,,,,,,,None,None,None,None,None,None,None,None,None,None,None,None,None,None,None,None,None,None,None,,None,None,None,,None,None,,,,,,,,,,,,,,,,,,,,,,,,,,,,,,,,,,,,,,,,,,,,,,,,,,,001,35,2020_Jan_08_1536,viewing,3.1.2,60.86227436107106,
south.png,stims/wedding-2.1a.mp4,stims/wedding-2.1b.mp4,stims/wedding-2.2b.mp4,stims/wedding-2.3a.mp4,stims/wedding-2.4b.mp4,stims/wedding-2.5.mp4,stimsday2details/painting2.png,stimsday2details/newpainting14.png,stimsday2details/newperson28.png,stimsday2details/couple2.png,stimsday2details/gift2.png,stimsday2details/new28.png,stimsday2details/cn2.png,stimsday2details/n2.png,stimsday2details/t2.png,stimsday2details/ct2.png,0,3,3,3,,,,,,,,,,,,,,,,,,,,,,,,,,,,,,,,,,,,,,,,,,,,,,,,,,,,,,,,,,,,,,,,,,,,,,,,,4.0207989513874054e-05,None,2,0.7638141037896276,609.9221431147307,None,609.9221431147307,None,609.9221431147307,None,611.9004469104111,None,1,0.6855161050334573,611.9004469104111,None,611.9004469104111,None,613.900583460927,None,613.900583460927,None,2,0.9516095696017146,613.900583460927,None,1,0.9187890151515603,615.9005025103688,None,615.9005025103688,None,615.9005025103688,None,617.9003656329587,None,617.9003656329587,None,1,0.9685263941064477,617.9003656329587,None,619.9005190636963,None,619.9005190636963,None,1,1.601768790744245,619.9005190636963,None,001,35,2020_Jan_08_1536,viewing,3.1.2,60.86227436107106,
south.png,stims/wedding-6.1a.mp4,stims/wedding-6.1b.mp4,stims/wedding-6.2a.mp4,stims/wedding-6.3b.mp4,stims/wedding-6.4a.mp4,stims/wedding-6.5.mp4,stimsday2details/egg6.png,stimsday2details/newegg15.png,stimsday2details/couple6.png,stimsday2details/newperson29.png,stimsday2details/new29.png,stimsday2details/gift6.png,stimsday2details/cn6.png,stimsday2details/n6.png,stimsday2details/ct6.png,stimsday2details/t6.png,0,4,4,4,0,0,0,0,,,,,,,,,,,,,,,,,,,,,,,,,621.9005071502179,None,,,,,,,,,,,,,,,,,,,,,,,,,,,,,,,,,,,,,,,,,,,,,,,,,,,,,,,,,,,,,,,,,,,,,,,,,,,,,,,,,,,,,,,,,,,,,001,35,2020_Jan_08_1536,viewing,3.1.2,60.86227436107106,
south.png,stims/wedding-6.1a.mp4,stims/wedding-6.1b.mp4,stims/wedding-6.2a.mp4,stims/wedding-6.3b.mp4,stims/wedding-6.4a.mp4,stims/wedding-6.5.mp4,stimsday2details/egg6.png,stimsday2details/newegg15.png,stimsday2details/couple6.png,stimsday2details/newperson29.png,stimsday2details/new29.png,stimsday2details/gift6.png,stimsday2details/cn6.png,stimsday2details/n6.png,stimsday2details/ct6.png,stimsday2details/t6.png,0,4,4,4,,,,,0,0,0,0,,,,,,,,,,,,,,,,,,,,,,,None,None,,,,,,,,,,,,,,,,,,,,,,,,,,,,,,,,,,,,,,,,,,,,,,,,,,,,,,,,,,,,,,,,,,,,,,,,,,,,,,,,,,,,,,,,,,,001,35,2020_Jan_08_1536,viewing,3.1.2,60.86227436107106,
south.png,stims/wedding-6.1a.mp4,stims/wedding-6.1b.mp4,stims/wedding-6.2a.mp4,stims/wedding-6.3b.mp4,stims/wedding-6.4a.mp4,stims/wedding-6.5.mp4,stimsday2details/egg6.png,stimsday2details/newegg15.png,stimsday2details/couple6.png,stimsday2details/newperson29.png,stimsday2details/new29.png,stimsday2details/gift6.png,stimsday2details/cn6.png,stimsday2details/n6.png,stimsday2details/ct6.png,stimsday2details/t6.png,0,4,4,4,,,,,,,,,0,0,0,0,,,,,,,,,,,,,,,,,,,,,2.993035682477057,None,632.1169109372422,657.1331445127726,657.1331445127726,None,666.1332407956943,683.1328113079071,683.1328113079071,706.1325876554474,706.1492610555142,730.1324733803049,730.1489515257999,None,,,,,,,,,,,,,,,,,,,,,,,,,,,,,,,,,,,,,,,,,,,,,,,,,,,,,,,,,,,,,,,,,,,,,,,,,,,,,001,35,2020_Jan_08_1536,viewing,3.1.2,60.86227436107106,
south.png,stims/wedding-6.1a.mp4,stims/wedding-6.1b.mp4,stims/wedding-6.2a.mp4,stims/wedding-6.3b.mp4,stims/wedding-6.4a.mp4,stims/wedding-6.5.mp4,stimsday2details/egg6.png,stimsday2details/newegg15.png,stimsday2details/couple6.png,stimsday2details/newperson29.png,stimsday2details/new29.png,stimsday2details/gift6.png,stimsday2details/cn6.png,stimsday2details/n6.png,stimsday2details/ct6.png,stimsday2details/t6.png,0,4,4,4,,,,,,,,,,,,,0,0,0,0,,,,,,,,,,,,,,,,,,,,,,,,,,,,,,,None,None,None,None,None,None,None,None,None,None,None,None,None,None,None,None,None,None,None,,None,None,None,,None,None,,,,,,,,,,,,,,,,,,,,,,,,,,,,,,,,,,,,,,,,,,,,,,,,,,,001,35,2020_Jan_08_1536,viewing,3.1.2,60.86227436107106,
south.png,stims/wedding-6.1a.mp4,stims/wedding-6.1b.mp4,stims/wedding-6.2a.mp4,stims/wedding-6.3b.mp4,stims/wedding-6.4a.mp4,stims/wedding-6.5.mp4,stimsday2details/egg6.png,stimsday2details/newegg15.png,stimsday2details/couple6.png,stimsday2details/newperson29.png,stimsday2details/new29.png,stimsday2details/gift6.png,stimsday2details/cn6.png,stimsday2details/n6.png,stimsday2details/ct6.png,stimsday2details/t6.png,0,4,4,4,,,,,,,,,,,,,,,,,,,,,,,,,,,,,,,,,,,,,,,,,,,,,,,,,,,,,,,,,,,,,,,,,,,,,,,,,3.459956496953964e-05,None,2,1.1355703780427575,754.1153303449973,None,754.1153303449973,None,754.1153303449973,None,756.0986260743812,None,1,0.6374072078615427,756.0986260743812,None,756.0986260743812,None,758.098599026911,None,758.098599026911,None,1,0.618508780375123,758.098599026911,None,2,0.9524144511669874,760.0985805504024,None,760.0985805504024,None,760.0985805504024,None,762.0985570717603,None,762.0985570717603,None,2,1.151868718676269,762.0985570717603,None,764.0985263772309,None,764.0985263772309,None,2,1.1686337068676949,764.0985263772309,None,001,35,2020_Jan_08_1536,viewing,3.1.2,60.86227436107106,
north.png,stims/wedding-38.1a.mp4,stims/wedding-38.1b.mp4,stims/wedding-38.2a.mp4,stims/wedding-38.3a.mp4,stims/wedding-38.4a.mp4,stims/wedding-38.5.mp4,stimsday2details/egg38.png,stimsday2details/newegg16.png,stimsday2details/newperson30.png,stimsday2details/couple38.png,stimsday2details/gift38.png,stimsday2details/new30.png,stimsday2details/cn38.png,stimsday2details/n38.png,stimsday2details/t38.png,stimsday2details/ct38.png,0,5,5,5,0,0,0,0,,,,,,,,,,,,,,,,,,,,,,,,,None,None,,,,,,,,,,,,,,,,,,,,,,,,,,,,,,,,,,,,,,,,,,,,,,,,,,,,,,,,,,,,,,,,,,,,,,,,,,,,,,,,,,,,,,,,,,,,,001,35,2020_Jan_08_1536,viewing,3.1.2,60.86227436107106,
north.png,stims/wedding-38.1a.mp4,stims/wedding-38.1b.mp4,stims/wedding-38.2a.mp4,stims/wedding-38.3a.mp4,stims/wedding-38.4a.mp4,stims/wedding-38.5.mp4,stimsday2details/egg38.png,stimsday2details/newegg16.png,stimsday2details/newperson30.png,stimsday2details/couple38.png,stimsday2details/gift38.png,stimsday2details/new30.png,stimsday2details/cn38.png,stimsday2details/n38.png,stimsday2details/t38.png,stimsday2details/ct38.png,0,5,5,5,,,,,0,0,0,0,,,,,,,,,,,,,,,,,,,,,,,766.2318362565711,None,,,,,,,,,,,,,,,,,,,,,,,,,,,,,,,,,,,,,,,,,,,,,,,,,,,,,,,,,,,,,,,,,,,,,,,,,,,,,,,,,,,,,,,,,,,001,35,2020_Jan_08_1536,viewing,3.1.2,60.86227436107106,
north.png,stims/wedding-38.1a.mp4,stims/wedding-38.1b.mp4,stims/wedding-38.2a.mp4,stims/wedding-38.3a.mp4,stims/wedding-38.4a.mp4,stims/wedding-38.5.mp4,stimsday2details/egg38.png,stimsday2details/newegg16.png,stimsday2details/newperson30.png,stimsday2details/couple38.png,stimsday2details/gift38.png,stimsday2details/new30.png,stimsday2details/cn38.png,stimsday2details/n38.png,stimsday2details/t38.png,stimsday2details/ct38.png,0,5,5,5,,,,,,,,,0,0,0,0,,,,,,,,,,,,,,,,,,,,,2.983533696271479,None,776.3487019296736,801.3649272583425,801.3815767774358,None,810.3814728949219,827.3643882600591,827.3810563674197,850.3642570655793,850.3809731304646,None,874.380642064847,None,,,,,,,,,,,,,,,,,,,,,,,,,,,,,,,,,,,,,,,,,,,,,,,,,,,,,,,,,,,,,,,,,,,,,,,,,,,,,001,35,2020_Jan_08_1536,viewing,3.1.2,60.86227436107106,
north.png,stims/wedding-38.1a.mp4,stims/wedding-38.1b.mp4,stims/wedding-38.2a.mp4,stims/wedding-38.3a.mp4,stims/wedding-38.4a.mp4,stims/wedding-38.5.mp4,stimsday2details/egg38.png,stimsday2details/newegg16.png,stimsday2details/newperson30.png,stimsday2details/couple38.png,stimsday2details/gift38.png,stimsday2details/new30.png,stimsday2details/cn38.png,stimsday2details/n38.png,stimsday2details/t38.png,stimsday2details/ct38.png,0,5,5,5,,,,,,,,,,,,,0,0,0,0,,,,,,,,,,,,,,,,,,,,,,,,,,,,,,,None,None,None,None,None,None,None,None,None,None,None,None,None,None,None,None,None,None,None,,None,None,None,,None,None,,,,,,,,,,,,,,,,,,,,,,,,,,,,,,,,,,,,,,,,,,,,,,,,,,,001,35,2020_Jan_08_1536,viewing,3.1.2,60.86227436107106,
north.png,stims/wedding-38.1a.mp4,stims/wedding-38.1b.mp4,stims/wedding-38.2a.mp4,stims/wedding-38.3a.mp4,stims/wedding-38.4a.mp4,stims/wedding-38.5.mp4,stimsday2details/egg38.png,stimsday2details/newegg16.png,stimsday2details/newperson30.png,stimsday2details/couple38.png,stimsday2details/gift38.png,stimsday2details/new30.png,stimsday2details/cn38.png,stimsday2details/n38.png,stimsday2details/t38.png,stimsday2details/ct38.png,0,5,5,5,,,,,,,,,,,,,,,,,,,,,,,,,,,,,,,,,,,,,,,,,,,,,,,,,,,,,,,,,,,,,,,,,,,,,,,,,4.7917477786540985e-05,None,2,0.8856429746374488,898.280224927701,None,898.280224927701,None,898.280224927701,None,900.2802272709087,None,1,0.783694775775075,900.2802272709087,None,900.2802272709087,None,902.2803209125996,None,902.2803209125996,None,2,1.035420331172645,902.2803209125996,None,1,0.8019052874296904,904.2802194152027,None,904.2802194152027,None,904.2802194152027,None,906.280087094754,None,906.280087094754,None,1,0.7351998221129179,906.280087094754,None,908.2799650430679,None,908.2799650430679,None,1,1.2353980205953121,908.2799650430679,None,001,35,2020_Jan_08_1536,viewing,3.1.2,60.86227436107106,
north.png,stims/wedding-17.1a.mp4,stims/wedding-17.1b.mp4,stims/wedding-17.2a.mp4,stims/wedding-17.3a.mp4,stims/wedding-17.4a.mp4,stims/wedding-17.5.mp4,stimsday2details/egg17.png,stimsday2details/newegg17.png,stimsday2details/couple17.png,stimsday2details/newperson31.png,stimsday2details/new31.png,stimsday2details/gift17.png,stimsday2details/n17.png,stimsday2details/cn17.png,stimsday2details/ct17.png,stimsday2details/t17.png,0,6,6,6,0,0,0,0,,,,,,,,,,,,,,,,,,,,,,,,,None,None,,,,,,,,,,,,,,,,,,,,,,,,,,,,,,,,,,,,,,,,,,,,,,,,,,,,,,,,,,,,,,,,,,,,,,,,,,,,,,,,,,,,,,,,,,,,,001,35,2020_Jan_08_1536,viewing,3.1.2,60.86227436107106,
north.png,stims/wedding-17.1a.mp4,stims/wedding-17.1b.mp4,stims/wedding-17.2a.mp4,stims/wedding-17.3a.mp4,stims/wedding-17.4a.mp4,stims/wedding-17.5.mp4,stimsday2details/egg17.png,stimsday2details/newegg17.png,stimsday2details/couple17.png,stimsday2details/newperson31.png,stimsday2details/new31.png,stimsday2details/gift17.png,stimsday2details/n17.png,stimsday2details/cn17.png,stimsday2details/ct17.png,stimsday2details/t17.png,0,6,6,6,,,,,0,0,0,0,,,,,,,,,,,,,,,,,,,,,,,910.4299979833886,None,,,,,,,,,,,,,,,,,,,,,,,,,,,,,,,,,,,,,,,,,,,,,,,,,,,,,,,,,,,,,,,,,,,,,,,,,,,,,,,,,,,,,,,,,,,001,35,2020_Jan_08_1536,viewing,3.1.2,60.86227436107106,
north.png,stims/wedding-17.1a.mp4,stims/wedding-17.1b.mp4,stims/wedding-17.2a.mp4,stims/wedding-17.3a.mp4,stims/wedding-17.4a.mp4,stims/wedding-17.5.mp4,stimsday2details/egg17.png,stimsday2details/newegg17.png,stimsday2details/couple17.png,stimsday2details/newperson31.png,stimsday2details/new31.png,stimsday2details/gift17.png,stimsday2details/n17.png,stimsday2details/cn17.png,stimsday2details/ct17.png,stimsday2details/t17.png,0,6,6,6,,,,,,,,,0,0,0,0,,,,,,,,,,,,,,,,,,,,,2.979649252258241,None,920.8132783155888,None,945.8464113511145,None,954.8461261847988,971.8627624642104,971.8627624642104,None,994.8459243262187,None,1018.8453635443002,None,,,,,,,,,,,,,,,,,,,,,,,,,,,,,,,,,,,,,,,,,,,,,,,,,,,,,,,,,,,,,,,,,,,,,,,,,,,,,001,35,2020_Jan_08_1536,viewing,3.1.2,60.86227436107106,
north.png,stims/wedding-17.1a.mp4,stims/wedding-17.1b.mp4,stims/wedding-17.2a.mp4,stims/wedding-17.3a.mp4,stims/wedding-17.4a.mp4,stims/wedding-17.5.mp4,stimsday2details/egg17.png,stimsday2details/newegg17.png,stimsday2details/couple17.png,stimsday2details/newperson31.png,stimsday2details/new31.png,stimsday2details/gift17.png,stimsday2details/n17.png,stimsday2details/cn17.png,stimsday2details/ct17.png,stimsday2details/t17.png,0,6,6,6,,,,,,,,,,,,,0,0,0,0,,,,,,,,,,,,,,,,,,,,,,,,,,,,,,,None,None,None,None,None,None,None,None,None,None,None,None,None,None,None,None,None,None,None,,None,None,None,,None,None,,,,,,,,,,,,,,,,,,,,,,,,,,,,,,,,,,,,,,,,,,,,,,,,,,,001,35,2020_Jan_08_1536,viewing,3.1.2,60.86227436107106,
north.png,stims/wedding-17.1a.mp4,stims/wedding-17.1b.mp4,stims/wedding-17.2a.mp4,stims/wedding-17.3a.mp4,stims/wedding-17.4a.mp4,stims/wedding-17.5.mp4,stimsday2details/egg17.png,stimsday2details/newegg17.png,stimsday2details/couple17.png,stimsday2details/newperson31.png,stimsday2details/new31.png,stimsday2details/gift17.png,stimsday2details/n17.png,stimsday2details/cn17.png,stimsday2details/ct17.png,stimsday2details/t17.png,0,6,6,6,,,,,,,,,,,,,,,,,,,,,,,,,,,,,,,,,,,,,,,,,,,,,,,,,,,,,,,,,,,,,,,,,,,,,,,,,3.7044286727905273e-05,None,1,0.7853808188810945,1042.7117454865947,None,1042.7117454865947,None,1042.7117454865947,None,1044.7118516499177,None,1,0.618720630183816,1044.7118516499177,None,1044.7118516499177,None,1046.7118162410334,None,1046.7118162410334,None,1,0.9689353620633483,1046.7118162410334,None,2,1.0682279290631413,1048.7118013035506,None,1048.7118013035506,None,1048.7118013035506,None,1050.7117310073227,None,1050.7117310073227,None,2,1.1352565921843052,1050.7117310073227,None,1052.7115656388924,None,1052.7115656388924,None,None,,1052.7115656388924,None,001,35,2020_Jan_08_1536,viewing,3.1.2,60.86227436107106,
south.png,stims/wedding-19.1a.mp4,stims/wedding-19.1b.mp4,stims/wedding-19.2a.mp4,stims/wedding-19.3b.mp4,stims/wedding-19.4a.mp4,stims/wedding-19.5.mp4,stimsday2details/egg19.png,stimsday2details/newegg18.png,stimsday2details/couple19.png,stimsday2details/newperson32.png,stimsday2details/new32.png,stimsday2details/gift19.png,stimsday2details/cn19.png,stimsday2details/n19.png,stimsday2details/ct19.png,stimsday2details/t19.png,0,7,7,7,0,0,0,0,,,,,,,,,,,,,,,,,,,,,,,,,1054.7115325732157,None,,,,,,,,,,,,,,,,,,,,,,,,,,,,,,,,,,,,,,,,,,,,,,,,,,,,,,,,,,,,,,,,,,,,,,,,,,,,,,,,,,,,,,,,,,,,,001,35,2020_Jan_08_1536,viewing,3.1.2,60.86227436107106,
south.png,stims/wedding-19.1a.mp4,stims/wedding-19.1b.mp4,stims/wedding-19.2a.mp4,stims/wedding-19.3b.mp4,stims/wedding-19.4a.mp4,stims/wedding-19.5.mp4,stimsday2details/egg19.png,stimsday2details/newegg18.png,stimsday2details/couple19.png,stimsday2details/newperson32.png,stimsday2details/new32.png,stimsday2details/gift19.png,stimsday2details/cn19.png,stimsday2details/n19.png,stimsday2details/ct19.png,stimsday2details/t19.png,0,7,7,7,,,,,0,0,0,0,,,,,,,,,,,,,,,,,,,,,,,None,None,,,,,,,,,,,,,,,,,,,,,,,,,,,,,,,,,,,,,,,,,,,,,,,,,,,,,,,,,,,,,,,,,,,,,,,,,,,,,,,,,,,,,,,,,,,001,35,2020_Jan_08_1536,viewing,3.1.2,60.86227436107106,
south.png,stims/wedding-19.1a.mp4,stims/wedding-19.1b.mp4,stims/wedding-19.2a.mp4,stims/wedding-19.3b.mp4,stims/wedding-19.4a.mp4,stims/wedding-19.5.mp4,stimsday2details/egg19.png,stimsday2details/newegg18.png,stimsday2details/couple19.png,stimsday2details/newperson32.png,stimsday2details/new32.png,stimsday2details/gift19.png,stimsday2details/cn19.png,stimsday2details/n19.png,stimsday2details/ct19.png,stimsday2details/t19.png,0,7,7,7,,,,,,,,,0,0,0,0,,,,,,,,,,,,,,,,,,,,,3.076647264882922,None,1065.1447994429618,1090.0779545288533,1090.0779545288533,None,1099.077851277776,1116.0774309430271,1116.0774309430271,1139.0772898318246,1139.0772898318246,None,1163.0769910058007,None,,,,,,,,,,,,,,,,,,,,,,,,,,,,,,,,,,,,,,,,,,,,,,,,,,,,,,,,,,,,,,,,,,,,,,,,,,,,,001,35,2020_Jan_08_1536,viewing,3.1.2,60.86227436107106,
south.png,stims/wedding-19.1a.mp4,stims/wedding-19.1b.mp4,stims/wedding-19.2a.mp4,stims/wedding-19.3b.mp4,stims/wedding-19.4a.mp4,stims/wedding-19.5.mp4,stimsday2details/egg19.png,stimsday2details/newegg18.png,stimsday2details/couple19.png,stimsday2details/newperson32.png,stimsday2details/new32.png,stimsday2details/gift19.png,stimsday2details/cn19.png,stimsday2details/n19.png,stimsday2details/ct19.png,stimsday2details/t19.png,0,7,7,7,,,,,,,,,,,,,0,0,0,0,,,,,,,,,,,,,,,,,,,,,,,,,,,,,,,None,None,None,None,None,None,None,None,None,None,None,None,None,None,None,None,None,None,None,,None,None,None,,None,None,,,,,,,,,,,,,,,,,,,,,,,,,,,,,,,,,,,,,,,,,,,,,,,,,,,001,35,2020_Jan_08_1536,viewing,3.1.2,60.86227436107106,
south.png,stims/wedding-19.1a.mp4,stims/wedding-19.1b.mp4,stims/wedding-19.2a.mp4,stims/wedding-19.3b.mp4,stims/wedding-19.4a.mp4,stims/wedding-19.5.mp4,stimsday2details/egg19.png,stimsday2details/newegg18.png,stimsday2details/couple19.png,stimsday2details/newperson32.png,stimsday2details/new32.png,stimsday2details/gift19.png,stimsday2details/cn19.png,stimsday2details/n19.png,stimsday2details/ct19.png,stimsday2details/t19.png,0,7,7,7,,,,,,,,,,,,,,,,,,,,,,,,,,,,,,,,,,,,,,,,,,,,,,,,,,,,,,,,,,,,,,,,,,,,,,,,,4.412233829498291e-05,None,2,0.9189380211755633,1187.5600439887494,None,1187.5600439887494,None,1187.5600439887494,None,1189.5600240537897,None,1,0.701771417632699,1189.5600240537897,None,1189.5600240537897,None,1191.5599834695458,None,1191.5599834695458,None,1,0.6522812973707914,1191.5599834695458,None,2,1.685558428056538,1193.5600007278845,None,1193.5600007278845,None,1193.5600007278845,None,1195.5597493089736,None,1195.5597493089736,None,2,1.1183555899187922,1195.5597493089736,None,1197.559758985415,None,1197.559758985415,None,2,1.2028108229860663,1197.559758985415,None,001,35,2020_Jan_08_1536,viewing,3.1.2,60.86227436107106,
south.png,stims/wedding-22.1a.mp4,stims/wedding-22.1b.mp4,stims/wedding-22.2b.mp4,stims/wedding-22.3a.mp4,stims/wedding-22.4b.mp4,stims/wedding-22.5.mp4,stimsday2details/painting22.png,stimsday2details/newpainting15.png,stimsday2details/couple22.png,stimsday2details/newperson33.png,stimsday2details/new33.png,stimsday2details/gift22.png,stimsday2details/n22.png,stimsday2details/cn22.png,stimsday2details/t22.png,stimsday2details/ct22.png,0,8,8,8,0,0,0,0,,,,,,,,,,,,,,,,,,,,,,,,,1199.559771373868,None,,,,,,,,,,,,,,,,,,,,,,,,,,,,,,,,,,,,,,,,,,,,,,,,,,,,,,,,,,,,,,,,,,,,,,,,,,,,,,,,,,,,,,,,,,,,,001,35,2020_Jan_08_1536,viewing,3.1.2,60.86227436107106,
south.png,stims/wedding-22.1a.mp4,stims/wedding-22.1b.mp4,stims/wedding-22.2b.mp4,stims/wedding-22.3a.mp4,stims/wedding-22.4b.mp4,stims/wedding-22.5.mp4,stimsday2details/painting22.png,stimsday2details/newpainting15.png,stimsday2details/couple22.png,stimsday2details/newperson33.png,stimsday2details/new33.png,stimsday2details/gift22.png,stimsday2details/n22.png,stimsday2details/cn22.png,stimsday2details/t22.png,stimsday2details/ct22.png,0,8,8,8,,,,,0,0,0,0,,,,,,,,,,,,,,,,,,,,,,,None,None,,,,,,,,,,,,,,,,,,,,,,,,,,,,,,,,,,,,,,,,,,,,,,,,,,,,,,,,,,,,,,,,,,,,,,,,,,,,,,,,,,,,,,,,,,,001,35,2020_Jan_08_1536,viewing,3.1.2,60.86227436107106,
south.png,stims/wedding-22.1a.mp4,stims/wedding-22.1b.mp4,stims/wedding-22.2b.mp4,stims/wedding-22.3a.mp4,stims/wedding-22.4b.mp4,stims/wedding-22.5.mp4,stimsday2details/painting22.png,stimsday2details/newpainting15.png,stimsday2details/couple22.png,stimsday2details/newperson33.png,stimsday2details/new33.png,stimsday2details/gift22.png,stimsday2details/n22.png,stimsday2details/cn22.png,stimsday2details/t22.png,stimsday2details/ct22.png,0,8,8,8,,,,,,,,,0,0,0,0,,,,,,,,,,,,,,,,,,,,,3.1673891954123974,None,1210.1263272259384,1234.9592804936692,1234.9761334378272,None,1243.976009027101,None,1260.9758031805977,1283.9586737668142,1283.975341563113,None,1307.9750840822235,None,,,,,,,,,,,,,,,,,,,,,,,,,,,,,,,,,,,,,,,,,,,,,,,,,,,,,,,,,,,,,,,,,,,,,,,,,,,,,001,35,2020_Jan_08_1536,viewing,3.1.2,60.86227436107106,
south.png,stims/wedding-22.1a.mp4,stims/wedding-22.1b.mp4,stims/wedding-22.2b.mp4,stims/wedding-22.3a.mp4,stims/wedding-22.4b.mp4,stims/wedding-22.5.mp4,stimsday2details/painting22.png,stimsday2details/newpainting15.png,stimsday2details/couple22.png,stimsday2details/newperson33.png,stimsday2details/new33.png,stimsday2details/gift22.png,stimsday2details/n22.png,stimsday2details/cn22.png,stimsday2details/t22.png,stimsday2details/ct22.png,0,8,8,8,,,,,,,,,,,,,0,0,0,0,,,,,,,,,,,,,,,,,,,,,,,,,,,,,,,None,None,None,None,None,None,None,None,None,None,None,None,None,None,None,None,None,None,None,,None,None,None,,None,None,,,,,,,,,,,,,,,,,,,,,,,,,,,,,,,,,,,,,,,,,,,,,,,,,,,001,35,2020_Jan_08_1536,viewing,3.1.2,60.86227436107106,
south.png,stims/wedding-22.1a.mp4,stims/wedding-22.1b.mp4,stims/wedding-22.2b.mp4,stims/wedding-22.3a.mp4,stims/wedding-22.4b.mp4,stims/wedding-22.5.mp4,stimsday2details/painting22.png,stimsday2details/newpainting15.png,stimsday2details/couple22.png,stimsday2details/newperson33.png,stimsday2details/new33.png,stimsday2details/gift22.png,stimsday2details/n22.png,stimsday2details/cn22.png,stimsday2details/t22.png,stimsday2details/ct22.png,0,8,8,8,,,,,,,,,,,,,,,,,,,,,,,,,,,,,,,,,,,,,,,,,,,,,,,,,,,,,,,,,,,,,,,,,,,,,,,,,4.2732805013656616e-05,None,1,0.9023250071331859,1331.9247327316552,None,1331.9247327316552,None,1331.9247327316552,None,1333.908230772242,None,2,1.7850283412262797,1333.908230772242,None,1333.908230772242,None,1335.907950709574,None,1335.907950709574,None,1,0.785419731400907,1335.907950709574,None,1,1.0853831358253956,1337.9081514319405,None,1337.9081514319405,None,1337.9081514319405,None,1339.908141899854,None,1339.908141899854,None,2,0.9016942735761404,1339.908141899854,None,1341.9079349944368,None,1341.9079349944368,None,2,1.0688115013763309,1341.9079349944368,None,001,35,2020_Jan_08_1536,viewing,3.1.2,60.86227436107106,
north.png,stims/wedding-28.1a.mp4,stims/wedding-28.1b.mp4,stims/wedding-28.2b.mp4,stims/wedding-28.3b.mp4,stims/wedding-28.4b.mp4,stims/wedding-28.5.mp4,stimsday2details/newpainting16.png,stimsday2details/painting28.png,stimsday2details/couple28.png,stimsday2details/newperson34.png,stimsday2details/gift28.png,stimsday2details/new34.png,stimsday2details/n28.png,stimsday2details/cn28.png,stimsday2details/ct28.png,stimsday2details/t28.png,0,9,9,9,0,0,0,0,,,,,,,,,,,,,,,,,,,,,,,,,None,None,,,,,,,,,,,,,,,,,,,,,,,,,,,,,,,,,,,,,,,,,,,,,,,,,,,,,,,,,,,,,,,,,,,,,,,,,,,,,,,,,,,,,,,,,,,,,001,35,2020_Jan_08_1536,viewing,3.1.2,60.86227436107106,
north.png,stims/wedding-28.1a.mp4,stims/wedding-28.1b.mp4,stims/wedding-28.2b.mp4,stims/wedding-28.3b.mp4,stims/wedding-28.4b.mp4,stims/wedding-28.5.mp4,stimsday2details/newpainting16.png,stimsday2details/painting28.png,stimsday2details/couple28.png,stimsday2details/newperson34.png,stimsday2details/gift28.png,stimsday2details/new34.png,stimsday2details/n28.png,stimsday2details/cn28.png,stimsday2details/ct28.png,stimsday2details/t28.png,0,9,9,9,,,,,0,0,0,0,,,,,,,,,,,,,,,,,,,,,,,1344.274520142004,None,,,,,,,,,,,,,,,,,,,,,,,,,,,,,,,,,,,,,,,,,,,,,,,,,,,,,,,,,,,,,,,,,,,,,,,,,,,,,,,,,,,,,,,,,,,001,35,2020_Jan_08_1536,viewing,3.1.2,60.86227436107106,
north.png,stims/wedding-28.1a.mp4,stims/wedding-28.1b.mp4,stims/wedding-28.2b.mp4,stims/wedding-28.3b.mp4,stims/wedding-28.4b.mp4,stims/wedding-28.5.mp4,stimsday2details/newpainting16.png,stimsday2details/painting28.png,stimsday2details/couple28.png,stimsday2details/newperson34.png,stimsday2details/gift28.png,stimsday2details/new34.png,stimsday2details/n28.png,stimsday2details/cn28.png,stimsday2details/ct28.png,stimsday2details/t28.png,0,9,9,9,,,,,,,,,0,0,0,0,,,,,,,,,,,,,,,,,,,,,2.9506060546264052,None,1354.457787069492,1379.5076265390962,1379.5076265390962,None,1388.5073487609625,None,1405.5073107080534,1428.50684504956,1428.50684504956,None,1452.5065575428307,None,,,,,,,,,,,,,,,,,,,,,,,,,,,,,,,,,,,,,,,,,,,,,,,,,,,,,,,,,,,,,,,,,,,,,,,,,,,,,001,35,2020_Jan_08_1536,viewing,3.1.2,60.86227436107106,
north.png,stims/wedding-28.1a.mp4,stims/wedding-28.1b.mp4,stims/wedding-28.2b.mp4,stims/wedding-28.3b.mp4,stims/wedding-28.4b.mp4,stims/wedding-28.5.mp4,stimsday2details/newpainting16.png,stimsday2details/painting28.png,stimsday2details/couple28.png,stimsday2details/newperson34.png,stimsday2details/gift28.png,stimsday2details/new34.png,stimsday2details/n28.png,stimsday2details/cn28.png,stimsday2details/ct28.png,stimsday2details/t28.png,0,9,9,9,,,,,,,,,,,,,0,0,0,0,,,,,,,,,,,,,,,,,,,,,,,,,,,,,,,None,None,None,None,None,None,None,None,None,None,None,None,None,None,None,None,None,None,None,,None,None,None,,None,None,,,,,,,,,,,,,,,,,,,,,,,,,,,,,,,,,,,,,,,,,,,,,,,,,,,001,35,2020_Jan_08_1536,viewing,3.1.2,60.86227436107106,
north.png,stims/wedding-28.1a.mp4,stims/wedding-28.1b.mp4,stims/wedding-28.2b.mp4,stims/wedding-28.3b.mp4,stims/wedding-28.4b.mp4,stims/wedding-28.5.mp4,stimsday2details/newpainting16.png,stimsday2details/painting28.png,stimsday2details/couple28.png,stimsday2details/newperson34.png,stimsday2details/gift28.png,stimsday2details/new34.png,stimsday2details/n28.png,stimsday2details/cn28.png,stimsday2details/ct28.png,stimsday2details/t28.png,0,9,9,9,,,,,,,,,,,,,,,,,,,,,,,,,,,,,,,,,,,,,,,,,,,,,,,,,,,,,,,,,,,,,,,,,,,,,,,,,3.637932240962982e-05,None,1,1.2314862068742514,1476.9603345012292,None,1476.9603345012292,None,1476.9603345012292,None,1478.939634132199,None,2,0.9350419379770756,1478.939634132199,None,1478.939634132199,None,1480.9397274358198,None,1480.9397274358198,None,1,0.7517115315422416,1480.9397274358198,None,2,1.6356562674045563,1482.9394943956286,None,1482.9394943956286,None,1482.9394943956286,None,1484.939467670396,None,1484.939467670396,None,1,0.9169286657124758,1484.939467670396,None,1486.9394410699606,None,1486.9394410699606,None,1,1.102032870054245,1486.9394410699606,None,001,35,2020_Jan_08_1536,viewing,3.1.2,60.86227436107106,
north.png,stims/wedding-34.1a.mp4,stims/wedding-34.1b.mp4,stims/wedding-34.2b.mp4,stims/wedding-34.3b.mp4,stims/wedding-34.4b.mp4,stims/wedding-34.5.mp4,stimsday2details/painting34.png,stimsday2details/newpainting17.png,stimsday2details/couple34.png,stimsday2details/newperson35.png,stimsday2details/new35.png,stimsday2details/gift34.png,stimsday2details/n34.png,stimsday2details/cn34.png,stimsday2details/t34.png,stimsday2details/ct34.png,0,10,10,10,0,0,0,0,,,,,,,,,,,,,,,,,,,,,,,,,None,None,,,,,,,,,,,,,,,,,,,,,,,,,,,,,,,,,,,,,,,,,,,,,,,,,,,,,,,,,,,,,,,,,,,,,,,,,,,,,,,,,,,,,,,,,,,,,001,35,2020_Jan_08_1536,viewing,3.1.2,60.86227436107106,
north.png,stims/wedding-34.1a.mp4,stims/wedding-34.1b.mp4,stims/wedding-34.2b.mp4,stims/wedding-34.3b.mp4,stims/wedding-34.4b.mp4,stims/wedding-34.5.mp4,stimsday2details/painting34.png,stimsday2details/newpainting17.png,stimsday2details/couple34.png,stimsday2details/newperson35.png,stimsday2details/new35.png,stimsday2details/gift34.png,stimsday2details/n34.png,stimsday2details/cn34.png,stimsday2details/t34.png,stimsday2details/ct34.png,0,10,10,10,,,,,0,0,0,0,,,,,,,,,,,,,,,,,,,,,,,1489.1727009518072,None,,,,,,,,,,,,,,,,,,,,,,,,,,,,,,,,,,,,,,,,,,,,,,,,,,,,,,,,,,,,,,,,,,,,,,,,,,,,,,,,,,,,,,,,,,,001,35,2020_Jan_08_1536,viewing,3.1.2,60.86227436107106,
north.png,stims/wedding-34.1a.mp4,stims/wedding-34.1b.mp4,stims/wedding-34.2b.mp4,stims/wedding-34.3b.mp4,stims/wedding-34.4b.mp4,stims/wedding-34.5.mp4,stimsday2details/painting34.png,stimsday2details/newpainting17.png,stimsday2details/couple34.png,stimsday2details/newperson35.png,stimsday2details/new35.png,stimsday2details/gift34.png,stimsday2details/n34.png,stimsday2details/cn34.png,stimsday2details/t34.png,stimsday2details/ct34.png,0,10,10,10,,,,,,,,,0,0,0,0,,,,,,,,,,,,,,,,,,,,,3.0537200309336185,None,1499.472843277268,1524.422487076372,1524.438972113654,1533.4221911616623,1533.4390348410234,None,1550.438830989413,1573.4218533774838,1573.4384133014828,None,1597.4382297638804,None,,,,,,,,,,,,,,,,,,,,,,,,,,,,,,,,,,,,,,,,,,,,,,,,,,,,,,,,,,,,,,,,,,,,,,,,,,,,,001,35,2020_Jan_08_1536,viewing,3.1.2,60.86227436107106,
north.png,stims/wedding-34.1a.mp4,stims/wedding-34.1b.mp4,stims/wedding-34.2b.mp4,stims/wedding-34.3b.mp4,stims/wedding-34.4b.mp4,stims/wedding-34.5.mp4,stimsday2details/painting34.png,stimsday2details/newpainting17.png,stimsday2details/couple34.png,stimsday2details/newperson35.png,stimsday2details/new35.png,stimsday2details/gift34.png,stimsday2details/n34.png,stimsday2details/cn34.png,stimsday2details/t34.png,stimsday2details/ct34.png,0,10,10,10,,,,,,,,,,,,,0,0,0,0,,,,,,,,,,,,,,,,,,,,,,,,,,,,,,,None,None,None,None,None,None,None,None,None,None,None,None,None,None,None,None,None,None,None,,None,None,None,,None,None,,,,,,,,,,,,,,,,,,,,,,,,,,,,,,,,,,,,,,,,,,,,,,,,,,,001,35,2020_Jan_08_1536,viewing,3.1.2,60.86227436107106,
north.png,stims/wedding-34.1a.mp4,stims/wedding-34.1b.mp4,stims/wedding-34.2b.mp4,stims/wedding-34.3b.mp4,stims/wedding-34.4b.mp4,stims/wedding-34.5.mp4,stimsday2details/painting34.png,stimsday2details/newpainting17.png,stimsday2details/couple34.png,stimsday2details/newperson35.png,stimsday2details/new35.png,stimsday2details/gift34.png,stimsday2details/n34.png,stimsday2details/cn34.png,stimsday2details/t34.png,stimsday2details/ct34.png,0,10,10,10,,,,,,,,,,,,,,,,,,,,,,,,,,,,,,,,,,,,,,,,,,,,,,,,,,,,,,,,,,,,,,,,,,,,,,,,,2.7560628950595856e-05,None,1,1.1348483776673675,1621.4046382997185,None,1621.4046382997185,None,1621.4046382997185,None,1623.404398003593,None,1,0.9856093944981694,1623.404398003593,None,1623.404398003593,None,1625.4045160468668,None,1625.4045160468668,None,1,0.6853392124176025,1625.4045160468668,None,1,0.9516364773735404,1627.404542104341,None,1627.404542104341,None,1627.404542104341,None,1629.404319764115,None,1629.404319764115,None,2,0.7351937340572476,1629.404319764115,None,1631.4043015399948,None,1631.4043015399948,None,1,1.3685075026005507,1631.4043015399948,None,001,35,2020_Jan_08_1536,viewing,3.1.2,60.86227436107106,
south.png,stims/wedding-20.1a.mp4,stims/wedding-20.1b.mp4,stims/wedding-20.2b.mp4,stims/wedding-20.3a.mp4,stims/wedding-20.4b.mp4,stims/wedding-20.5.mp4,stimsday2details/painting20.png,stimsday2details/newpainting18.png,stimsday2details/newperson36.png,stimsday2details/couple20.png,stimsday2details/gift20.png,stimsday2details/new36.png,stimsday2details/cn20.png,stimsday2details/n20.png,stimsday2details/ct20.png,stimsday2details/t20.png,0,11,11,11,0,0,0,0,,,,,,,,,,,,,,,,,,,,,,,,,1633.4042759155855,None,,,,,,,,,,,,,,,,,,,,,,,,,,,,,,,,,,,,,,,,,,,,,,,,,,,,,,,,,,,,,,,,,,,,,,,,,,,,,,,,,,,,,,,,,,,,,001,35,2020_Jan_08_1536,viewing,3.1.2,60.86227436107106,
south.png,stims/wedding-20.1a.mp4,stims/wedding-20.1b.mp4,stims/wedding-20.2b.mp4,stims/wedding-20.3a.mp4,stims/wedding-20.4b.mp4,stims/wedding-20.5.mp4,stimsday2details/painting20.png,stimsday2details/newpainting18.png,stimsday2details/newperson36.png,stimsday2details/couple20.png,stimsday2details/gift20.png,stimsday2details/new36.png,stimsday2details/cn20.png,stimsday2details/n20.png,stimsday2details/ct20.png,stimsday2details/t20.png,0,11,11,11,,,,,0,0,0,0,,,,,,,,,,,,,,,,,,,,,,,None,None,,,,,,,,,,,,,,,,,,,,,,,,,,,,,,,,,,,,,,,,,,,,,,,,,,,,,,,,,,,,,,,,,,,,,,,,,,,,,,,,,,,,,,,,,,,001,35,2020_Jan_08_1536,viewing,3.1.2,60.86227436107106,
south.png,stims/wedding-20.1a.mp4,stims/wedding-20.1b.mp4,stims/wedding-20.2b.mp4,stims/wedding-20.3a.mp4,stims/wedding-20.4b.mp4,stims/wedding-20.5.mp4,stimsday2details/painting20.png,stimsday2details/newpainting18.png,stimsday2details/newperson36.png,stimsday2details/couple20.png,stimsday2details/gift20.png,stimsday2details/new36.png,stimsday2details/cn20.png,stimsday2details/n20.png,stimsday2details/ct20.png,stimsday2details/t20.png,0,11,11,11,,,,,,,,,0,0,0,0,,,,,,,,,,,,,,,,,,,,,None,None,None,None,None,None,None,None,None,None,None,None,None,None,,,,,,,,,,,,,,,,,,,,,,,,,,,,,,,,,,,,,,,,,,,,,,,,,,,,,,,,,,,,,,,,,,,,,,,,,,,,,001,35,2020_Jan_08_1536,viewing,3.1.2,60.86227436107106,
south.png,stims/wedding-20.1a.mp4,stims/wedding-20.1b.mp4,stims/wedding-20.2b.mp4,stims/wedding-20.3a.mp4,stims/wedding-20.4b.mp4,stims/wedding-20.5.mp4,stimsday2details/painting20.png,stimsday2details/newpainting18.png,stimsday2details/newperson36.png,stimsday2details/couple20.png,stimsday2details/gift20.png,stimsday2details/new36.png,stimsday2details/cn20.png,stimsday2details/n20.png,stimsday2details/ct20.png,stimsday2details/t20.png,0,11,11,11,,,,,,,,,,,,,0,0,0,0,,,,,,,,,,,,,,,,,,,,,,,,,,,,,,,2.800757392309606,None,1646.8890910772607,1672.0872890362516,1672.1037846347317,None,1681.1036776266992,None,1698.1036574803293,1702.086746728979,1702.1034134207293,1725.0864199185744,1725.1033121608198,1729.0864118672907,1729.103080496192,None,1753.10296658054,None,['1'],[3.785672666504979],1697.1036667684093,1702.086746728979,['1'],[2.818590202368796],1724.1031420882791,1729.0864118672907,,,,,,,,,,,,,,,,,,,,,,,,,,,,,,,,,,,,,,,,,,,,,,,,,,,001,35,2020_Jan_08_1536,viewing,3.1.2,60.86227436107106,
south.png,stims/wedding-20.1a.mp4,stims/wedding-20.1b.mp4,stims/wedding-20.2b.mp4,stims/wedding-20.3a.mp4,stims/wedding-20.4b.mp4,stims/wedding-20.5.mp4,stimsday2details/painting20.png,stimsday2details/newpainting18.png,stimsday2details/newperson36.png,stimsday2details/couple20.png,stimsday2details/gift20.png,stimsday2details/new36.png,stimsday2details/cn20.png,stimsday2details/n20.png,stimsday2details/ct20.png,stimsday2details/t20.png,0,11,11,11,,,,,,,,,,,,,,,,,,,,,,,,,,,,,,,,,,,,,,,,,,,,,,,,,,,,,,,,,,,,,,,,,,,,,,,,,6.0901977121829987e-05,None,2,0.9637115700170398,1773.0074587678537,None,1773.0074587678537,None,1773.0074587678537,None,1774.9858333989978,None,1,0.6355755692347884,1774.9858333989978,None,1774.9858333989978,None,1776.9857458425686,None,1776.9857458425686,None,2,0.785704642534256,1776.9857458425686,None,2,0.9022698672488332,1778.9857878424227,None,1778.9857878424227,None,1778.9857878424227,None,1780.985959132202,None,1780.985959132202,None,1,0.7187339905649424,1780.985959132202,None,1782.985732426867,None,1782.985732426867,None,1,0.535081235691905,1782.985732426867,None,001,35,2020_Jan_08_1536,viewing,3.1.2,60.86227436107106,
