condsFile,northOrSouth,stimFile1a,stimFile1b,stimFile2,stimFile3,stimFile4,stimFile5,QeggPainting1,Qcharacter1,Qgift1,QeggPainting2,Qcharacter2,Qgift2,Qname1,Qtheme1,Qname2,Qtheme2,block.thisRepN,block.thisTrialN,block.thisN,block.thisIndex,trials.thisRepN,trials.thisTrialN,trials.thisN,trials.thisIndex,noQtrials.thisRepN,noQtrials.thisTrialN,noQtrials.thisN,noQtrials.thisIndex,Qtrials.thisRepN,Qtrials.thisTrialN,Qtrials.thisN,Qtrials.thisIndex,text.started,text.stopped,prep_trigger.keys,prep_trigger.rt,prep_trigger.started,prep_trigger.stopped,waiting.started,waiting.stopped,trigger.keys,trigger.rt,trigger.started,trigger.stopped,image_3.started,image_3.stopped,trialNoQs.started,trialNoQs.stopped,vid1a.started,vid1a.stopped,vid1b.started,vid1b.stopped,vid2.started,vid2.stopped,vid3.started,vid3.stopped,vid4.started,vid4.stopped,vid5.started,vid5.stopped,ISI2.started,ISI2.stopped,vid1a_q.started,vid1a_q.stopped,vid1b_q.started,vid1b_q.stopped,vid2_q.started,vid2_q.stopped,l2q.started,l2q.stopped,vid3_q.started,vid3_q.stopped,l3q.started,l3q.stopped,vid4_q.started,vid4_q.stopped,vid5_q.started,vid5_q.stopped,key_resp_2.keys,key_resp_2.rt,key_resp_2.started,key_resp_2.stopped,key_resp_3.keys,key_resp_3.rt,key_resp_3.started,key_resp_3.stopped,ISI7.started,ISI7.stopped,nameQresp.keys,nameQresp.rt,nameQresp.started,nameQresp.stopped,nameQ1.started,nameQ1.stopped,nameQ2.started,nameQ2.stopped,eggPainting1.started,eggPainting1.stopped,eggPaintingQresp.keys,eggPaintingQresp.rt,eggPaintingQresp.started,eggPaintingQresp.stopped,eggPainting2.started,eggPainting2.stopped,character1.started,character1.stopped,character2.started,character2.stopped,Qcharacter.keys,Qcharacter.rt,Qcharacter.started,Qcharacter.stopped,themeQresp.keys,themeQresp.rt,themeQresp.started,themeQresp.stopped,themeQ1.started,themeQ1.stopped,themeQ2.started,themeQ2.stopped,gift1.started,gift1.stopped,gift2.started,gift2.stopped,giftQresp.keys,giftQresp.rt,giftQresp.started,giftQresp.stopped,northorsouth1.started,northorsouth1.stopped,northOrSouthQ.keys,northOrSouthQ.rt,northOrSouthQ.started,northOrSouthQ.stopped,northorsouth2.started,northorsouth2.stopped,session,participant,date,expName,psychopyVersion,frameRate,
,,,,,,,,,,,,,,,,,,,,,,,,,,,,,,,,,,5.0547062223777175,None,g,0.7334630135446787,5.0547062223777175,None,,,,,,,,,,,,,,,,,,,,,,,,,,,,,,,,,,,,,,,,,,,,,,,,,,,,,,,,,,,,,,,,,,,,,,,,,,,,,,,,,,,,,,,,,,,,,,,,,,,001,36,2020_Jan_09_1521,Block4,3.1.2,59.999857396226304,
,,,,,,,,,,,,,,,,,,,,,,,,,,,,,,,,,,,,,,,,5.804542264901102,None,equal,18.51894384995103,5.804542264901102,None,,,,,,,,,,,,,,,,,,,,,,,,,,,,,,,,,,,,,,,,,,,,,,,,,,,,,,,,,,,,,,,,,,,,,,,,,,,,,,,,,,,,,,,,,,,,,001,36,2020_Jan_09_1521,Block4,3.1.2,59.999857396226304,
videoBlock_schemaN_pathB_6.csv,north.png,stims/wedding-16.1a.mp4,stims/wedding-16.1b.mp4,stims/wedding-16.2b.mp4,stims/wedding-16.3b.mp4,stims/wedding-16.4b.mp4,stims/wedding-16.5.mp4,stimsday1details/painting16.png,stimsday1details/newperson18.png,stimsday1details/gift16.png,stimsday1details/newpainting6.png,stimsday1details/couple16.png,stimsday1details/new18.png,stimsday1details/n16.png,stimsday1details/ct16.png,stimsday1details/cn16.png,stimsday1details/t16.png,0,0,0,5,0,0,0,0,0,0,0,0,,,,,,,,,,,,,,,,,24.3568854033947,None,None,None,None,None,None,None,None,None,None,None,None,None,None,None,,,,,,,,,,,,,,,,,,,,,,,,,,,,,,,,,,,,,,,,,,,,,,,,,,,,,,,,,,,,,,,,,,,,,,,,,,,,,001,36,2020_Jan_09_1521,Block4,3.1.2,59.999857396226304,
videoBlock_schemaN_pathB_6.csv,north.png,stims/wedding-16.1a.mp4,stims/wedding-16.1b.mp4,stims/wedding-16.2b.mp4,stims/wedding-16.3b.mp4,stims/wedding-16.4b.mp4,stims/wedding-16.5.mp4,stimsday1details/painting16.png,stimsday1details/newperson18.png,stimsday1details/gift16.png,stimsday1details/newpainting6.png,stimsday1details/couple16.png,stimsday1details/new18.png,stimsday1details/n16.png,stimsday1details/ct16.png,stimsday1details/cn16.png,stimsday1details/t16.png,0,0,0,5,0,0,0,0,,,,,0,0,0,0,,,,,,,,,,,,,,,,,,,,,,,,,,,,,2.6975772362202406,None,37.00431122072041,None,53.30386889073998,62.28730512596667,62.30398733448237,79.28693901747465,79.30360634811223,83.28688907530159,83.30358648020774,106.28660192806274,106.3032344719395,110.2865550108254,110.30328698921949,134.28643224481493,134.3031171951443,None,['2'],[3.101963333785534],78.30386177636683,83.28688907530159,['2'],[1.968516823835671],105.3034172737971,110.2865550108254,,,,,,,,,,,,,,,,,,,,,,,,,,,,,,,,,,,,,,,,,,,,,,,,,,,001,36,2020_Jan_09_1521,Block4,3.1.2,59.999857396226304,
videoBlock_schemaN_pathB_6.csv,north.png,stims/wedding-16.1a.mp4,stims/wedding-16.1b.mp4,stims/wedding-16.2b.mp4,stims/wedding-16.3b.mp4,stims/wedding-16.4b.mp4,stims/wedding-16.5.mp4,stimsday1details/painting16.png,stimsday1details/newperson18.png,stimsday1details/gift16.png,stimsday1details/newpainting6.png,stimsday1details/couple16.png,stimsday1details/new18.png,stimsday1details/n16.png,stimsday1details/ct16.png,stimsday1details/cn16.png,stimsday1details/t16.png,0,0,0,5,0,0,0,0,,,,,,,,,,,,,,,,,,,,,,,,,,,,,,,,,,,,,,,,,,,,,,,,,,,,,,,,,,,,,,,2.915598452091217e-05,None,1,0.6524093244224787,149.01940615475178,None,149.01940615475178,None,149.01940615475178,None,151.00271505489945,None,1,0.91852065641433,151.00271505489945,None,151.00271505489945,None,153.00268974900246,None,153.00268974900246,None,2,0.835335997864604,153.00268974900246,None,2,1.002141224220395,155.00265734270215,None,155.00265734270215,None,155.00265734270215,None,157.00263276230544,None,157.00263276230544,None,1,0.7356101926416159,157.00263276230544,None,159.00260770879686,None,1,0.5021006977185607,159.00260770879686,None,159.00260770879686,None,001,36,2020_Jan_09_1521,Block4,3.1.2,59.999857396226304,
videoBlock_schemaN_pathA_5.csv,north.png,stims/wedding-15.1a.mp4,stims/wedding-15.1b.mp4,stims/wedding-15.2a.mp4,stims/wedding-15.3a.mp4,stims/wedding-15.4a.mp4,stims/wedding-15.5.mp4,stimsday1details/egg15.png,stimsday1details/couple15.png,stimsday1details/gift15.png,stimsday1details/newegg5.png,stimsday1details/newperson5.png,stimsday1details/new5.png,stimsday1details/n15.png,stimsday1details/t15.png,stimsday1details/cn15.png,stimsday1details/ct15.png,0,1,1,1,0,0,0,0,0,0,0,0,,,,,,,,,,,,,,,,,161.18611956387758,None,2.928977821022272,None,171.11929774098098,187.1857720920816,187.20238377340138,195.18564708065242,195.202163326554,None,212.20194985438138,235.18520423024893,235.20180062483996,259.1846936941147,259.20135840121657,None,,,,,,,,,,,,,,,,,,,,,,,,,,,,,,,,,,,,,,,,,,,,,,,,,,,,,,,,,,,,,,,,,,,,,,,,,,,,,001,36,2020_Jan_09_1521,Block4,3.1.2,59.999857396226304,
videoBlock_schemaN_pathA_5.csv,north.png,stims/wedding-15.1a.mp4,stims/wedding-15.1b.mp4,stims/wedding-15.2a.mp4,stims/wedding-15.3a.mp4,stims/wedding-15.4a.mp4,stims/wedding-15.5.mp4,stimsday1details/egg15.png,stimsday1details/couple15.png,stimsday1details/gift15.png,stimsday1details/newegg5.png,stimsday1details/newperson5.png,stimsday1details/new5.png,stimsday1details/n15.png,stimsday1details/t15.png,stimsday1details/cn15.png,stimsday1details/ct15.png,0,1,1,1,0,0,0,0,,,,,0,0,0,0,,,,,,,,,,,,,,,,,,,,,,,,,,,,,None,None,None,None,None,None,None,None,None,None,None,None,None,None,None,None,None,None,None,,None,None,None,,None,None,,,,,,,,,,,,,,,,,,,,,,,,,,,,,,,,,,,,,,,,,,,,,,,,,,,001,36,2020_Jan_09_1521,Block4,3.1.2,59.999857396226304,
videoBlock_schemaN_pathA_5.csv,north.png,stims/wedding-15.1a.mp4,stims/wedding-15.1b.mp4,stims/wedding-15.2a.mp4,stims/wedding-15.3a.mp4,stims/wedding-15.4a.mp4,stims/wedding-15.5.mp4,stimsday1details/egg15.png,stimsday1details/couple15.png,stimsday1details/gift15.png,stimsday1details/newegg5.png,stimsday1details/newperson5.png,stimsday1details/new5.png,stimsday1details/n15.png,stimsday1details/t15.png,stimsday1details/cn15.png,stimsday1details/ct15.png,0,1,1,1,0,0,0,0,,,,,,,,,,,,,,,,,,,,,,,,,,,,,,,,,,,,,,,,,,,,,,,,,,,,,,,,,,,,,,,3.0773691833019257e-05,None,1,0.7522396957501769,277.2511585056782,None,277.2511585056782,None,277.2511585056782,None,279.2344422545284,None,1,0.8022072724997997,279.2344422545284,None,279.2344422545284,None,281.2343583907932,None,281.2343583907932,None,1,0.8023793734610081,281.2343583907932,None,1,1.0518132643774152,283.2345617748797,None,283.2345617748797,None,283.2345617748797,None,285.23448684532195,None,285.23448684532195,None,1,0.9835883378982544,285.23448684532195,None,287.2345133656636,None,1,0.7524028746411204,287.2345133656636,None,287.2345133656636,None,001,36,2020_Jan_09_1521,Block4,3.1.2,59.999857396226304,
videoBlock_schemaN_pathA_4.csv,north.png,stims/wedding-13.1a.mp4,stims/wedding-13.1b.mp4,stims/wedding-13.2a.mp4,stims/wedding-13.3a.mp4,stims/wedding-13.4a.mp4,stims/wedding-13.5.mp4,stimsday1details/egg13.png,stimsday1details/couple13.png,stimsday1details/new4.png,stimsday1details/newegg4.png,stimsday1details/newperson4.png,stimsday1details/gift13.png,stimsday1details/n13.png,stimsday1details/ct13.png,stimsday1details/cn13.png,stimsday1details/t13.png,0,2,2,0,0,0,0,0,0,0,0,0,,,,,,,,,,,,,,,,,289.4509925264865,None,2.7634863751009107,None,299.21747150924057,None,315.4674813821912,323.45055622886866,323.4672262277454,340.4505493734032,340.4670170918107,363.4500588430092,363.4667291259393,387.4497722806409,387.46643465571105,None,,,,,,,,,,,,,,,,,,,,,,,,,,,,,,,,,,,,,,,,,,,,,,,,,,,,,,,,,,,,,,,,,,,,,,,,,,,,,001,36,2020_Jan_09_1521,Block4,3.1.2,59.999857396226304,
videoBlock_schemaN_pathA_4.csv,north.png,stims/wedding-13.1a.mp4,stims/wedding-13.1b.mp4,stims/wedding-13.2a.mp4,stims/wedding-13.3a.mp4,stims/wedding-13.4a.mp4,stims/wedding-13.5.mp4,stimsday1details/egg13.png,stimsday1details/couple13.png,stimsday1details/new4.png,stimsday1details/newegg4.png,stimsday1details/newperson4.png,stimsday1details/gift13.png,stimsday1details/n13.png,stimsday1details/ct13.png,stimsday1details/cn13.png,stimsday1details/t13.png,0,2,2,0,0,0,0,0,,,,,0,0,0,0,,,,,,,,,,,,,,,,,,,,,,,,,,,,,None,None,None,None,None,None,None,None,None,None,None,None,None,None,None,None,None,None,None,,None,None,None,,None,None,,,,,,,,,,,,,,,,,,,,,,,,,,,,,,,,,,,,,,,,,,,,,,,,,,,001,36,2020_Jan_09_1521,Block4,3.1.2,59.999857396226304,
videoBlock_schemaN_pathA_4.csv,north.png,stims/wedding-13.1a.mp4,stims/wedding-13.1b.mp4,stims/wedding-13.2a.mp4,stims/wedding-13.3a.mp4,stims/wedding-13.4a.mp4,stims/wedding-13.5.mp4,stimsday1details/egg13.png,stimsday1details/couple13.png,stimsday1details/new4.png,stimsday1details/newegg4.png,stimsday1details/newperson4.png,stimsday1details/gift13.png,stimsday1details/n13.png,stimsday1details/ct13.png,stimsday1details/cn13.png,stimsday1details/t13.png,0,2,2,0,0,0,0,0,,,,,,,,,,,,,,,,,,,,,,,,,,,,,,,,,,,,,,,,,,,,,,,,,,,,,,,,,,,,,,,4.052836447954178e-05,None,1,0.752214502543211,404.53310565650463,None,404.53310565650463,None,404.53310565650463,None,406.5163831198588,None,1,0.8520337622612715,406.5163831198588,None,406.5163831198588,None,408.51617291010916,None,408.51617291010916,None,1,0.8521537752822042,408.51617291010916,None,2,1.1018855972215533,410.51613837853074,None,410.51613837853074,None,410.51613837853074,None,412.5160587672144,None,412.5160587672144,None,2,0.7523388024419546,412.5160587672144,None,414.5162783227861,None,1,0.5688267173245549,414.5162783227861,None,414.5162783227861,None,001,36,2020_Jan_09_1521,Block4,3.1.2,59.999857396226304,
videoBlock_schemaN_pathB_5.csv,north.png,stims/wedding-18.1a.mp4,stims/wedding-18.1b.mp4,stims/wedding-18.2b.mp4,stims/wedding-18.3b.mp4,stims/wedding-18.4b.mp4,stims/wedding-18.5.mp4,stimsday1details/newpainting5.png,stimsday1details/couple18.png,stimsday1details/new17.png,stimsday1details/painting18.png,stimsday1details/newperson17.png,stimsday1details/gift18.png,stimsday1details/cn18.png,stimsday1details/t18.png,stimsday1details/n18.png,stimsday1details/ct18.png,0,3,3,4,0,0,0,0,0,0,0,0,,,,,,,,,,,,,,,,,416.76623789872974,None,2.898850569501519,None,426.6662369100377,442.7659268453717,442.78272834979,450.76563000213355,450.78231053519994,None,467.78209377545863,490.7651405595243,490.7818023879081,514.7649480337277,514.7814791174605,None,,,,,,,,,,,,,,,,,,,,,,,,,,,,,,,,,,,,,,,,,,,,,,,,,,,,,,,,,,,,,,,,,,,,,,,,,,,,,001,36,2020_Jan_09_1521,Block4,3.1.2,59.999857396226304,
videoBlock_schemaN_pathB_5.csv,north.png,stims/wedding-18.1a.mp4,stims/wedding-18.1b.mp4,stims/wedding-18.2b.mp4,stims/wedding-18.3b.mp4,stims/wedding-18.4b.mp4,stims/wedding-18.5.mp4,stimsday1details/newpainting5.png,stimsday1details/couple18.png,stimsday1details/new17.png,stimsday1details/painting18.png,stimsday1details/newperson17.png,stimsday1details/gift18.png,stimsday1details/cn18.png,stimsday1details/t18.png,stimsday1details/n18.png,stimsday1details/ct18.png,0,3,3,4,0,0,0,0,,,,,0,0,0,0,,,,,,,,,,,,,,,,,,,,,,,,,,,,,None,None,None,None,None,None,None,None,None,None,None,None,None,None,None,None,None,None,None,,None,None,None,,None,None,,,,,,,,,,,,,,,,,,,,,,,,,,,,,,,,,,,,,,,,,,,,,,,,,,,001,36,2020_Jan_09_1521,Block4,3.1.2,59.999857396226304,
videoBlock_schemaN_pathB_5.csv,north.png,stims/wedding-18.1a.mp4,stims/wedding-18.1b.mp4,stims/wedding-18.2b.mp4,stims/wedding-18.3b.mp4,stims/wedding-18.4b.mp4,stims/wedding-18.5.mp4,stimsday1details/newpainting5.png,stimsday1details/couple18.png,stimsday1details/new17.png,stimsday1details/painting18.png,stimsday1details/newperson17.png,stimsday1details/gift18.png,stimsday1details/cn18.png,stimsday1details/t18.png,stimsday1details/n18.png,stimsday1details/ct18.png,0,3,3,4,0,0,0,0,,,,,,,,,,,,,,,,,,,,,,,,,,,,,,,,,,,,,,,,,,,,,,,,,,,,,,,,,,,,,,,3.835093230009079e-05,None,2,0.9354243520647287,532.9812868880108,None,532.9812868880108,None,532.9812868880108,None,534.9814408998936,None,2,0.8524276139214635,534.9814408998936,None,534.9814408998936,None,536.9813382262364,None,536.9813382262364,None,1,0.718879209831357,536.9813382262364,None,1,1.2024897746741772,538.981187786907,None,538.981187786907,None,538.981187786907,None,540.9811984542757,None,540.9811984542757,None,2,0.9352437509223819,540.9811984542757,None,542.9813085813075,None,1,0.7684140130877495,542.9813085813075,None,542.9813085813075,None,001,36,2020_Jan_09_1521,Block4,3.1.2,59.999857396226304,
videoBlock_schemaN_pathA_6.csv,north.png,stims/wedding-40.1a.mp4,stims/wedding-40.1b.mp4,stims/wedding-40.2a.mp4,stims/wedding-40.3a.mp4,stims/wedding-40.4a.mp4,stims/wedding-40.5.mp4,stimsday1details/newegg6.png,stimsday1details/newperson6.png,stimsday1details/new6.png,stimsday1details/egg40.png,stimsday1details/couple40.png,stimsday1details/gift40.png,stimsday1details/n40.png,stimsday1details/t40.png,stimsday1details/cn40.png,stimsday1details/ct40.png,0,4,4,2,0,0,0,0,0,0,0,0,,,,,,,,,,,,,,,,,545.2646996751428,None,2.775087903253734,None,555.0310684489086,571.2640764033422,571.2808055030182,None,579.2809096481651,None,596.2805005218834,619.2637266507372,619.2801773594692,None,643.2800500849262,None,,,,,,,,,,,,,,,,,,,,,,,,,,,,,,,,,,,,,,,,,,,,,,,,,,,,,,,,,,,,,,,,,,,,,,,,,,,,,001,36,2020_Jan_09_1521,Block4,3.1.2,59.999857396226304,
videoBlock_schemaN_pathA_6.csv,north.png,stims/wedding-40.1a.mp4,stims/wedding-40.1b.mp4,stims/wedding-40.2a.mp4,stims/wedding-40.3a.mp4,stims/wedding-40.4a.mp4,stims/wedding-40.5.mp4,stimsday1details/newegg6.png,stimsday1details/newperson6.png,stimsday1details/new6.png,stimsday1details/egg40.png,stimsday1details/couple40.png,stimsday1details/gift40.png,stimsday1details/n40.png,stimsday1details/t40.png,stimsday1details/cn40.png,stimsday1details/ct40.png,0,4,4,2,0,0,0,0,,,,,0,0,0,0,,,,,,,,,,,,,,,,,,,,,,,,,,,,,None,None,None,None,None,None,None,None,None,None,None,None,None,None,None,None,None,None,None,,None,None,None,,None,None,,,,,,,,,,,,,,,,,,,,,,,,,,,,,,,,,,,,,,,,,,,,,,,,,,,001,36,2020_Jan_09_1521,Block4,3.1.2,59.999857396226304,
videoBlock_schemaN_pathA_6.csv,north.png,stims/wedding-40.1a.mp4,stims/wedding-40.1b.mp4,stims/wedding-40.2a.mp4,stims/wedding-40.3a.mp4,stims/wedding-40.4a.mp4,stims/wedding-40.5.mp4,stimsday1details/newegg6.png,stimsday1details/newperson6.png,stimsday1details/new6.png,stimsday1details/egg40.png,stimsday1details/couple40.png,stimsday1details/gift40.png,stimsday1details/n40.png,stimsday1details/t40.png,stimsday1details/cn40.png,stimsday1details/ct40.png,0,4,4,2,0,0,0,0,,,,,,,,,,,,,,,,,,,,,,,,,,,,,,,,,,,,,,,,,,,,,,,,,,,,,,,,,,,,,,,4.525110125541687e-05,None,1,0.9187648603692651,661.396286512725,None,661.396286512725,None,661.396286512725,None,663.3962619593367,None,2,0.8356342995539308,663.3962619593367,None,663.3962619593367,None,665.3962977910414,None,665.3962977910414,None,2,0.8191760340705514,665.3962977910414,None,1,1.0023561781272292,667.3962169643492,None,667.3962169643492,None,667.3962169643492,None,669.3962476151064,None,669.3962476151064,None,2,0.71891222987324,669.3962476151064,None,671.396415467374,None,1,0.5852628638967872,671.396415467374,None,671.396415467374,None,001,36,2020_Jan_09_1521,Block4,3.1.2,59.999857396226304,
videoBlock_schemaN_pathB_4.csv,north.png,stims/wedding-12.1a.mp4,stims/wedding-12.1b.mp4,stims/wedding-12.2b.mp4,stims/wedding-12.3b.mp4,stims/wedding-12.4b.mp4,stims/wedding-12.5.mp4,stimsday1details/painting12.png,stimsday1details/couple12.png,stimsday1details/gift12.png,stimsday1details/newpainting4.png,stimsday1details/newperson16.png,stimsday1details/new16.png,stimsday1details/n12.png,stimsday1details/t12.png,stimsday1details/cn12.png,stimsday1details/ct12.png,0,5,5,3,0,0,0,0,0,0,0,0,,,,,,,,,,,,,,,,,673.7130147432908,None,None,None,None,None,None,None,None,None,None,None,None,None,None,None,,,,,,,,,,,,,,,,,,,,,,,,,,,,,,,,,,,,,,,,,,,,,,,,,,,,,,,,,,,,,,,,,,,,,,,,,,,,,001,36,2020_Jan_09_1521,Block4,3.1.2,59.999857396226304,
videoBlock_schemaN_pathB_4.csv,north.png,stims/wedding-12.1a.mp4,stims/wedding-12.1b.mp4,stims/wedding-12.2b.mp4,stims/wedding-12.3b.mp4,stims/wedding-12.4b.mp4,stims/wedding-12.5.mp4,stimsday1details/painting12.png,stimsday1details/couple12.png,stimsday1details/gift12.png,stimsday1details/newpainting4.png,stimsday1details/newperson16.png,stimsday1details/new16.png,stimsday1details/n12.png,stimsday1details/t12.png,stimsday1details/cn12.png,stimsday1details/ct12.png,0,5,5,3,0,0,0,0,,,,,0,0,0,0,,,,,,,,,,,,,,,,,,,,,,,,,,,,,2.7626952985301614,None,686.4627008559182,702.6960055343807,702.7126304544508,None,711.7123133065179,None,728.7123374873772,732.6954489992931,732.7121203737333,755.6951650604606,755.7118378523737,759.6950574135408,759.7117837192491,None,783.7114924769849,None,['2'],[2.8355587692931294],727.712191416882,732.6954489992931,['2'],[1.8021000269800425],754.7118568774313,759.6950574135408,,,,,,,,,,,,,,,,,,,,,,,,,,,,,,,,,,,,,,,,,,,,,,,,,,,001,36,2020_Jan_09_1521,Block4,3.1.2,59.999857396226304,
videoBlock_schemaN_pathB_4.csv,north.png,stims/wedding-12.1a.mp4,stims/wedding-12.1b.mp4,stims/wedding-12.2b.mp4,stims/wedding-12.3b.mp4,stims/wedding-12.4b.mp4,stims/wedding-12.5.mp4,stimsday1details/painting12.png,stimsday1details/couple12.png,stimsday1details/gift12.png,stimsday1details/newpainting4.png,stimsday1details/newperson16.png,stimsday1details/new16.png,stimsday1details/n12.png,stimsday1details/t12.png,stimsday1details/cn12.png,stimsday1details/ct12.png,0,5,5,3,0,0,0,0,,,,,,,,,,,,,,,,,,,,,,,,,,,,,,,,,,,,,,,,,,,,,,,,,,,,,,,,,,,,,,,3.63597646355629e-05,None,1,0.6358120776712894,798.0446572415531,None,798.0446572415531,None,798.0446572415531,None,800.0281955804676,None,1,0.5356010189279914,800.0281955804676,None,800.0281955804676,None,802.0279204491526,None,802.0279204491526,None,1,0.9684803206473589,802.0279204491526,None,1,1.2017167154699564,804.0282688848674,None,804.0282688848674,None,804.0282688848674,None,806.0280634760857,None,806.0280634760857,None,1,0.7855064487084746,806.0280634760857,None,808.0278494982049,None,1,0.6687370492145419,808.0278494982049,None,808.0278494982049,None,001,36,2020_Jan_09_1521,Block4,3.1.2,59.999857396226304,
