condsFile,northOrSouth,stimFile1a,stimFile1b,stimFile2,stimFile3,stimFile4,stimFile5,QeggPainting1,Qcharacter1,Qgift1,QeggPainting2,Qcharacter2,Qgift2,Qname1,Qtheme1,Qname2,Qtheme2,block.thisRepN,block.thisTrialN,block.thisN,block.thisIndex,trials.thisRepN,trials.thisTrialN,trials.thisN,trials.thisIndex,noQtrials.thisRepN,noQtrials.thisTrialN,noQtrials.thisN,noQtrials.thisIndex,Qtrials.thisRepN,Qtrials.thisTrialN,Qtrials.thisN,Qtrials.thisIndex,text.started,text.stopped,prep_trigger.keys,prep_trigger.rt,prep_trigger.started,prep_trigger.stopped,waiting.started,waiting.stopped,trigger.keys,trigger.rt,trigger.started,trigger.stopped,image_2.started,image_2.stopped,trialNoQs.started,trialNoQs.stopped,vid1a.started,vid1a.stopped,vid1b.started,vid1b.stopped,vid2.started,vid2.stopped,vid3.started,vid3.stopped,vid4.started,vid4.stopped,vid5.started,vid5.stopped,image.started,image.stopped,ISI2.started,ISI2.stopped,vid1a_q.started,vid1a_q.stopped,vid1b_q.started,vid1b_q.stopped,vid2_q.started,vid2_q.stopped,l2q.started,l2q.stopped,vid3_q.started,vid3_q.stopped,l3q.started,l3q.stopped,vid4_q.started,vid4_q.stopped,vid5_q.started,vid5_q.stopped,key_resp_2.keys,key_resp_2.rt,key_resp_2.started,key_resp_2.stopped,key_resp_3.keys,key_resp_3.rt,key_resp_3.started,key_resp_3.stopped,reveal.started,reveal.stopped,ISI7.started,ISI7.stopped,nameQresp.keys,nameQresp.rt,nameQresp.started,nameQresp.stopped,nameQ1.started,nameQ1.stopped,nameQ2.started,nameQ2.stopped,eggPainting1.started,eggPainting1.stopped,eggPaintingQresp.keys,eggPaintingQresp.rt,eggPaintingQresp.started,eggPaintingQresp.stopped,eggPainting2.started,eggPainting2.stopped,character1.started,character1.stopped,character2.started,character2.stopped,Qcharacter.keys,Qcharacter.rt,Qcharacter.started,Qcharacter.stopped,themeQresp.keys,themeQresp.rt,themeQresp.started,themeQresp.stopped,themeQ1.started,themeQ1.stopped,themeQ2.started,themeQ2.stopped,gift1.started,gift1.stopped,gift2.started,gift2.stopped,giftQresp.keys,giftQresp.rt,giftQresp.started,giftQresp.stopped,northorsouth1.started,northorsouth1.stopped,northOrSouthQ.keys,northOrSouthQ.rt,northOrSouthQ.started,northOrSouthQ.stopped,northorsouth2.started,northorsouth2.stopped,session,participant,date,expName,psychopyVersion,frameRate,
,,,,,,,,,,,,,,,,,,,,,,,,,,,,,,,,,,10.288271218538284,None,g,0.3037462439388037,10.288271218538284,None,,,,,,,,,,,,,,,,,,,,,,,,,,,,,,,,,,,,,,,,,,,,,,,,,,,,,,,,,,,,,,,,,,,,,,,,,,,,,,,,,,,,,,,,,,,,,,,,,,,,,,,001,38,2020_Jan_13_1554,Block2,3.1.2,59.981559670741156,
,,,,,,,,,,,,,,,,,,,,,,,,,,,,,,,,,,,,,,,,10.604753213003278,None,equal,16.68549624737352,10.604753213003278,None,,,,,,,,,,,,,,,,,,,,,,,,,,,,,,,,,,,,,,,,,,,,,,,,,,,,,,,,,,,,,,,,,,,,,,,,,,,,,,,,,,,,,,,,,,,,,,,,,001,38,2020_Jan_13_1554,Block2,3.1.2,59.981559670741156,
videoBlock_schemaS_pathA_4.csv,south.png,stims/wedding-21.1a.mp4,stims/wedding-21.1b.mp4,stims/wedding-21.2a.mp4,stims/wedding-21.3b.mp4,stims/wedding-21.4a.mp4,stims/wedding-21.5.mp4,stimsday1details/egg21.png,stimsday1details/newperson10.png,stimsday1details/gift21.png,stimsday1details/newegg10.png,stimsday1details/couple21.png,stimsday1details/new10.png,stimsday1details/n21.png,stimsday1details/ct21.png,stimsday1details/cn21.png,stimsday1details/t21.png,0,0,0,0,0,0,0,0,0,0,0,0,,,,,,,,,,,,,,,,,27.32126167230308,None,None,None,None,None,None,None,None,None,None,None,None,None,None,None,None,None,,,,,,,,,,,,,,,,,,,,,,,,,,,,,,,,,,,,,,,,,,,,,,,,,,,,,,,,,,,,,,,,,,,,,,,,,,,,,,,001,38,2020_Jan_13_1554,Block2,3.1.2,59.981559670741156,
videoBlock_schemaS_pathA_4.csv,south.png,stims/wedding-21.1a.mp4,stims/wedding-21.1b.mp4,stims/wedding-21.2a.mp4,stims/wedding-21.3b.mp4,stims/wedding-21.4a.mp4,stims/wedding-21.5.mp4,stimsday1details/egg21.png,stimsday1details/newperson10.png,stimsday1details/gift21.png,stimsday1details/newegg10.png,stimsday1details/couple21.png,stimsday1details/new10.png,stimsday1details/n21.png,stimsday1details/ct21.png,stimsday1details/cn21.png,stimsday1details/t21.png,0,0,0,0,0,0,0,0,,,,,0,0,0,0,,,,,,,,,,,,,,,,,,,,,,,,,,,,,,,2.697624634951353,None,39.389822595752776,None,62.20322310645133,None,71.20423469878733,88.18666898366064,88.20312883704901,92.19145531859249,92.20376082137227,115.18579803686589,115.20277978293598,119.18616197537631,119.20378613844514,143.18586934544146,143.20249000005424,None,['2'],[3.2017429815605283],87.20343152340502,92.19145531859249,['1'],[3.2353771748021245],114.20316071808338,119.18616197537631,39.389822595752776,39.389822595752776,,,,,,,,,,,,,,,,,,,,,,,,,,,,,,,,,,,,,,,,,,,,,,,,,,,001,38,2020_Jan_13_1554,Block2,3.1.2,59.981559670741156,
videoBlock_schemaS_pathA_4.csv,south.png,stims/wedding-21.1a.mp4,stims/wedding-21.1b.mp4,stims/wedding-21.2a.mp4,stims/wedding-21.3b.mp4,stims/wedding-21.4a.mp4,stims/wedding-21.5.mp4,stimsday1details/egg21.png,stimsday1details/newperson10.png,stimsday1details/gift21.png,stimsday1details/newegg10.png,stimsday1details/couple21.png,stimsday1details/new10.png,stimsday1details/n21.png,stimsday1details/ct21.png,stimsday1details/cn21.png,stimsday1details/t21.png,0,0,0,0,0,0,0,0,,,,,,,,,,,,,,,,,,,,,,,,,,,,,,,,,,,,,,,,,,,,,,,,,,,,,,,,,,,,,,,,,,,2.4038366973400116e-05,None,1,0.9057162320241332,158.3194468608126,None,158.3194468608126,None,158.3194468608126,None,160.30289899371564,None,1,0.9682067204266787,160.30289899371564,None,160.30289899371564,None,162.3029920719564,None,162.3029920719564,None,2,0.9521870510652661,162.3029920719564,None,2,0.9871182320639491,164.30203436501324,None,164.30203436501324,None,164.30203436501324,None,166.3025163821876,None,166.3025163821876,None,1,0.9345737975090742,166.3025163821876,None,168.30265800468624,None,2,1.1860201517120004,168.30265800468624,None,168.30265800468624,None,001,38,2020_Jan_13_1554,Block2,3.1.2,59.981559670741156,
videoBlock_schemaS_pathA_5.csv,south.png,stims/wedding-26.1a.mp4,stims/wedding-26.1b.mp4,stims/wedding-26.2a.mp4,stims/wedding-26.3b.mp4,stims/wedding-26.4a.mp4,stims/wedding-26.5.mp4,stimsday1details/egg26.png,stimsday1details/couple26.png,stimsday1details/gift26.png,stimsday1details/newegg11.png,stimsday1details/newperson11.png,stimsday1details/new11.png,stimsday1details/cn26.png,stimsday1details/ct26.png,stimsday1details/n26.png,stimsday1details/t26.png,0,1,1,1,0,0,0,0,0,0,0,0,,,,,,,,,,,,,,,,,170.48590571898967,None,2.87471217289567,None,179.86915790475905,None,202.50173672381788,211.48545982129872,211.50141163542867,None,228.50198916904628,251.484719960019,251.5012830896303,275.48376132175326,275.5003558024764,None,179.86915790475905,179.86915790475905,,,,,,,,,,,,,,,,,,,,,,,,,,,,,,,,,,,,,,,,,,,,,,,,,,,,,,,,,,,,,,,,,,,,,,,,,,,,,,,001,38,2020_Jan_13_1554,Block2,3.1.2,59.981559670741156,
videoBlock_schemaS_pathA_5.csv,south.png,stims/wedding-26.1a.mp4,stims/wedding-26.1b.mp4,stims/wedding-26.2a.mp4,stims/wedding-26.3b.mp4,stims/wedding-26.4a.mp4,stims/wedding-26.5.mp4,stimsday1details/egg26.png,stimsday1details/couple26.png,stimsday1details/gift26.png,stimsday1details/newegg11.png,stimsday1details/newperson11.png,stimsday1details/new11.png,stimsday1details/cn26.png,stimsday1details/ct26.png,stimsday1details/n26.png,stimsday1details/t26.png,0,1,1,1,0,0,0,0,,,,,0,0,0,0,,,,,,,,,,,,,,,,,,,,,,,,,,,,,,,None,None,None,None,None,None,None,None,None,None,None,None,None,None,None,None,None,None,None,,None,None,None,,None,None,None,None,,,,,,,,,,,,,,,,,,,,,,,,,,,,,,,,,,,,,,,,,,,,,,,,,,,001,38,2020_Jan_13_1554,Block2,3.1.2,59.981559670741156,
videoBlock_schemaS_pathA_5.csv,south.png,stims/wedding-26.1a.mp4,stims/wedding-26.1b.mp4,stims/wedding-26.2a.mp4,stims/wedding-26.3b.mp4,stims/wedding-26.4a.mp4,stims/wedding-26.5.mp4,stimsday1details/egg26.png,stimsday1details/couple26.png,stimsday1details/gift26.png,stimsday1details/newegg11.png,stimsday1details/newperson11.png,stimsday1details/new11.png,stimsday1details/cn26.png,stimsday1details/ct26.png,stimsday1details/n26.png,stimsday1details/t26.png,0,1,1,1,0,0,0,0,,,,,,,,,,,,,,,,,,,,,,,,,,,,,,,,,,,,,,,,,,,,,,,,,,,,,,,,,,,,,,,,,,,2.73045152425766e-05,None,2,1.0718093430623412,293.2175573250279,None,293.2175573250279,None,293.2175573250279,None,295.20053208153695,None,1,0.7733552986755967,295.20053208153695,None,295.20053208153695,None,297.2008642582223,None,297.2008642582223,None,1,0.7902048509567976,297.2008642582223,None,2,1.0024968907237053,299.2007705979049,None,299.2007705979049,None,299.2007705979049,None,301.20013547781855,None,301.20013547781855,None,1,0.7235616017132998,301.20013547781855,None,303.2008004626259,None,2,0.8235308770090342,303.2008004626259,None,303.2008004626259,None,001,38,2020_Jan_13_1554,Block2,3.1.2,59.981559670741156,
videoBlock_schemaS_pathB_5.csv,south.png,stims/wedding-31.1a.mp4,stims/wedding-31.1b.mp4,stims/wedding-31.2b.mp4,stims/wedding-31.3a.mp4,stims/wedding-31.4b.mp4,stims/wedding-31.5.mp4,stimsday1details/painting31.png,stimsday1details/couple31.png,stimsday1details/gift31.png,stimsday1details/newpainting11.png,stimsday1details/newperson23.png,stimsday1details/new23.png,stimsday1details/cn31.png,stimsday1details/ct31.png,stimsday1details/n31.png,stimsday1details/t31.png,0,2,2,4,0,0,0,0,0,0,0,0,,,,,,,,,,,,,,,,,305.4338277904317,None,2.7726688915863633,None,314.70049363095313,337.4166238969192,337.43300026934594,346.4175156308338,346.4336502254009,None,363.43394274730235,386.4163926690817,386.4331151219085,410.4329314790666,410.4329314790666,None,314.70049363095313,314.70049363095313,,,,,,,,,,,,,,,,,,,,,,,,,,,,,,,,,,,,,,,,,,,,,,,,,,,,,,,,,,,,,,,,,,,,,,,,,,,,,,,001,38,2020_Jan_13_1554,Block2,3.1.2,59.981559670741156,
videoBlock_schemaS_pathB_5.csv,south.png,stims/wedding-31.1a.mp4,stims/wedding-31.1b.mp4,stims/wedding-31.2b.mp4,stims/wedding-31.3a.mp4,stims/wedding-31.4b.mp4,stims/wedding-31.5.mp4,stimsday1details/painting31.png,stimsday1details/couple31.png,stimsday1details/gift31.png,stimsday1details/newpainting11.png,stimsday1details/newperson23.png,stimsday1details/new23.png,stimsday1details/cn31.png,stimsday1details/ct31.png,stimsday1details/n31.png,stimsday1details/t31.png,0,2,2,4,0,0,0,0,,,,,0,0,0,0,,,,,,,,,,,,,,,,,,,,,,,,,,,,,,,None,None,None,None,None,None,None,None,None,None,None,None,None,None,None,None,None,None,None,,None,None,None,,None,None,None,None,,,,,,,,,,,,,,,,,,,,,,,,,,,,,,,,,,,,,,,,,,,,,,,,,,,001,38,2020_Jan_13_1554,Block2,3.1.2,59.981559670741156,
videoBlock_schemaS_pathB_5.csv,south.png,stims/wedding-31.1a.mp4,stims/wedding-31.1b.mp4,stims/wedding-31.2b.mp4,stims/wedding-31.3a.mp4,stims/wedding-31.4b.mp4,stims/wedding-31.5.mp4,stimsday1details/painting31.png,stimsday1details/couple31.png,stimsday1details/gift31.png,stimsday1details/newpainting11.png,stimsday1details/newperson23.png,stimsday1details/new23.png,stimsday1details/cn31.png,stimsday1details/ct31.png,stimsday1details/n31.png,stimsday1details/t31.png,0,2,2,4,0,0,0,0,,,,,,,,,,,,,,,,,,,,,,,,,,,,,,,,,,,,,,,,,,,,,,,,,,,,,,,,,,,,,,,,,,,3.038160502910614e-05,None,2,1.072602060623467,427.69970759004354,None,427.69970759004354,None,427.69970759004354,None,429.69935402367264,None,1,0.7661007894203067,429.69935402367264,None,429.69935402367264,None,431.704245056957,None,431.704245056957,None,1,0.7179694101214409,431.704245056957,None,2,0.8574559474363923,433.69864452444017,None,433.69864452444017,None,433.69864452444017,None,435.6988927144557,None,435.6988927144557,None,1,0.8233297504484653,435.6988927144557,None,437.6988810878247,None,2,0.8733993545174599,437.6988810878247,None,437.6988810878247,None,001,38,2020_Jan_13_1554,Block2,3.1.2,59.981559670741156,
videoBlock_schemaS_pathB_4.csv,south.png,stims/wedding-35.1a.mp4,stims/wedding-35.1b.mp4,stims/wedding-35.2b.mp4,stims/wedding-35.3a.mp4,stims/wedding-35.4b.mp4,stims/wedding-35.5.mp4,stimsday1details/newpainting10.png,stimsday1details/newperson22.png,stimsday1details/gift35.png,stimsday1details/painting35.png,stimsday1details/couple35.png,stimsday1details/new22.png,stimsday1details/n35.png,stimsday1details/t35.png,stimsday1details/cn35.png,stimsday1details/ct35.png,0,3,3,3,0,0,0,0,0,0,0,0,,,,,,,,,,,,,,,,,439.9492503060028,None,2.7218674551695585,None,449.18241664301604,471.982373544015,471.982373544015,None,480.96516815945506,497.94807468913496,497.9653945704922,520.9482811084017,520.964773343876,None,544.9645188311115,None,449.18241664301604,449.18241664301604,,,,,,,,,,,,,,,,,,,,,,,,,,,,,,,,,,,,,,,,,,,,,,,,,,,,,,,,,,,,,,,,,,,,,,,,,,,,,,,001,38,2020_Jan_13_1554,Block2,3.1.2,59.981559670741156,
videoBlock_schemaS_pathB_4.csv,south.png,stims/wedding-35.1a.mp4,stims/wedding-35.1b.mp4,stims/wedding-35.2b.mp4,stims/wedding-35.3a.mp4,stims/wedding-35.4b.mp4,stims/wedding-35.5.mp4,stimsday1details/newpainting10.png,stimsday1details/newperson22.png,stimsday1details/gift35.png,stimsday1details/painting35.png,stimsday1details/couple35.png,stimsday1details/new22.png,stimsday1details/n35.png,stimsday1details/t35.png,stimsday1details/cn35.png,stimsday1details/ct35.png,0,3,3,3,0,0,0,0,,,,,0,0,0,0,,,,,,,,,,,,,,,,,,,,,,,,,,,,,,,None,None,None,None,None,None,None,None,None,None,None,None,None,None,None,None,None,None,None,,None,None,None,,None,None,None,None,,,,,,,,,,,,,,,,,,,,,,,,,,,,,,,,,,,,,,,,,,,,,,,,,,,001,38,2020_Jan_13_1554,Block2,3.1.2,59.981559670741156,
videoBlock_schemaS_pathB_4.csv,south.png,stims/wedding-35.1a.mp4,stims/wedding-35.1b.mp4,stims/wedding-35.2b.mp4,stims/wedding-35.3a.mp4,stims/wedding-35.4b.mp4,stims/wedding-35.5.mp4,stimsday1details/newpainting10.png,stimsday1details/newperson22.png,stimsday1details/gift35.png,stimsday1details/painting35.png,stimsday1details/couple35.png,stimsday1details/new22.png,stimsday1details/n35.png,stimsday1details/t35.png,stimsday1details/cn35.png,stimsday1details/ct35.png,0,3,3,3,0,0,0,0,,,,,,,,,,,,,,,,,,,,,,,,,,,,,,,,,,,,,,,,,,,,,,,,,,,,,,,,,,,,,,,,,,,4.184246063232422e-05,None,1,0.7493689302355051,562.3843917809427,None,562.3843917809427,None,562.3843917809427,None,564.3813092950732,None,2,0.8529983861371875,564.3813092950732,None,564.3813092950732,None,566.3812905168161,None,566.3812905168161,None,2,0.867778847925365,566.3812905168161,None,1,1.1523725986480713,568.3814473897219,None,568.3814473897219,None,568.3814473897219,None,570.3811457278207,None,570.3811457278207,None,1,0.8188151065260172,570.3811457278207,None,572.3862655023113,None,2,1.5798167726024985,572.3862655023113,None,572.3862655023113,None,001,38,2020_Jan_13_1554,Block2,3.1.2,59.981559670741156,
videoBlock_schemaS_pathB_6.csv,south.png,stims/wedding-37.1a.mp4,stims/wedding-37.1b.mp4,stims/wedding-37.2b.mp4,stims/wedding-37.3a.mp4,stims/wedding-37.4b.mp4,stims/wedding-37.5.mp4,stimsday1details/painting37.png,stimsday1details/couple37.png,stimsday1details/gift37.png,stimsday1details/newpainting12.png,stimsday1details/newperson24.png,stimsday1details/new24.png,stimsday1details/n37.png,stimsday1details/t37.png,stimsday1details/cn37.png,stimsday1details/ct37.png,0,4,4,5,0,0,0,0,0,0,0,0,,,,,,,,,,,,,,,,,574.6652698768303,None,2.6885271817445755,None,583.8471853304654,None,606.6797798853368,None,615.6805890863761,None,632.6802005795762,None,655.6799629321322,None,679.67900185287,None,583.8471853304654,583.8471853304654,,,,,,,,,,,,,,,,,,,,,,,,,,,,,,,,,,,,,,,,,,,,,,,,,,,,,,,,,,,,,,,,,,,,,,,,,,,,,,,001,38,2020_Jan_13_1554,Block2,3.1.2,59.981559670741156,
videoBlock_schemaS_pathB_6.csv,south.png,stims/wedding-37.1a.mp4,stims/wedding-37.1b.mp4,stims/wedding-37.2b.mp4,stims/wedding-37.3a.mp4,stims/wedding-37.4b.mp4,stims/wedding-37.5.mp4,stimsday1details/painting37.png,stimsday1details/couple37.png,stimsday1details/gift37.png,stimsday1details/newpainting12.png,stimsday1details/newperson24.png,stimsday1details/new24.png,stimsday1details/n37.png,stimsday1details/t37.png,stimsday1details/cn37.png,stimsday1details/ct37.png,0,4,4,5,0,0,0,0,,,,,0,0,0,0,,,,,,,,,,,,,,,,,,,,,,,,,,,,,,,None,None,None,None,None,None,None,None,None,None,None,None,None,None,None,None,None,None,None,,None,None,None,,None,None,None,None,,,,,,,,,,,,,,,,,,,,,,,,,,,,,,,,,,,,,,,,,,,,,,,,,,,001,38,2020_Jan_13_1554,Block2,3.1.2,59.981559670741156,
videoBlock_schemaS_pathB_6.csv,south.png,stims/wedding-37.1a.mp4,stims/wedding-37.1b.mp4,stims/wedding-37.2b.mp4,stims/wedding-37.3a.mp4,stims/wedding-37.4b.mp4,stims/wedding-37.5.mp4,stimsday1details/painting37.png,stimsday1details/couple37.png,stimsday1details/gift37.png,stimsday1details/newpainting12.png,stimsday1details/newperson24.png,stimsday1details/new24.png,stimsday1details/n37.png,stimsday1details/t37.png,stimsday1details/cn37.png,stimsday1details/ct37.png,0,4,4,5,0,0,0,0,,,,,,,,,,,,,,,,,,,,,,,,,,,,,,,,,,,,,,,,,,,,,,,,,,,,,,,,,,,,,,,,,,,4.186481237411499e-05,None,1,1.0402992656454444,697.2627214100212,None,697.2627214100212,None,697.2627214100212,None,699.2553609423339,None,1,1.4142018742859364,699.2553609423339,None,699.2553609423339,None,701.2506733462214,None,701.2506733462214,None,1,0.8188787726685405,701.2506733462214,None,1,0.736014723777771,703.249936058186,None,703.249936058186,None,703.249936058186,None,705.2498193224892,None,705.2498193224892,None,1,0.6522559877485037,705.2498193224892,None,707.246092101559,None,2,0.7709778025746346,707.246092101559,None,707.246092101559,None,001,38,2020_Jan_13_1554,Block2,3.1.2,59.981559670741156,
videoBlock_schemaS_pathA_6.csv,south.png,stims/wedding-30.1a.mp4,stims/wedding-30.1b.mp4,stims/wedding-30.2a.mp4,stims/wedding-30.3b.mp4,stims/wedding-30.4a.mp4,stims/wedding-30.5.mp4,stimsday1details/newegg12.png,stimsday1details/couple30.png,stimsday1details/new12.png,stimsday1details/egg30.png,stimsday1details/newperson12.png,stimsday1details/gift30.png,stimsday1details/n30.png,stimsday1details/t30.png,stimsday1details/cn30.png,stimsday1details/ct30.png,0,5,5,2,0,0,0,0,0,0,0,0,,,,,,,,,,,,,,,,,709.5619572624564,None,None,None,None,None,None,None,None,None,None,None,None,None,None,None,None,None,,,,,,,,,,,,,,,,,,,,,,,,,,,,,,,,,,,,,,,,,,,,,,,,,,,,,,,,,,,,,,,,,,,,,,,,,,,,,,,001,38,2020_Jan_13_1554,Block2,3.1.2,59.981559670741156,
videoBlock_schemaS_pathA_6.csv,south.png,stims/wedding-30.1a.mp4,stims/wedding-30.1b.mp4,stims/wedding-30.2a.mp4,stims/wedding-30.3b.mp4,stims/wedding-30.4a.mp4,stims/wedding-30.5.mp4,stimsday1details/newegg12.png,stimsday1details/couple30.png,stimsday1details/new12.png,stimsday1details/egg30.png,stimsday1details/newperson12.png,stimsday1details/gift30.png,stimsday1details/n30.png,stimsday1details/t30.png,stimsday1details/cn30.png,stimsday1details/ct30.png,0,5,5,2,0,0,0,0,,,,,0,0,0,0,,,,,,,,,,,,,,,,,,,,,,,,,,,,,,,2.8964011557400227,None,722.0115967523307,744.6122385906056,744.6278445245698,None,753.6291210073978,770.6113344961777,770.628520234488,774.6155848344788,774.6291393609717,797.6114040641114,797.6277196947485,801.6163290888071,801.6163290888071,825.6102499449626,825.6267578816041,None,['2'],[2.485343297943473],769.6280961045995,774.6155848344788,['1'],[2.6774902753531933],796.6285333391279,801.6163290888071,722.0115967523307,722.0115967523307,,,,,,,,,,,,,,,,,,,,,,,,,,,,,,,,,,,,,,,,,,,,,,,,,,,001,38,2020_Jan_13_1554,Block2,3.1.2,59.981559670741156,
videoBlock_schemaS_pathA_6.csv,south.png,stims/wedding-30.1a.mp4,stims/wedding-30.1b.mp4,stims/wedding-30.2a.mp4,stims/wedding-30.3b.mp4,stims/wedding-30.4a.mp4,stims/wedding-30.5.mp4,stimsday1details/newegg12.png,stimsday1details/couple30.png,stimsday1details/new12.png,stimsday1details/egg30.png,stimsday1details/newperson12.png,stimsday1details/gift30.png,stimsday1details/n30.png,stimsday1details/t30.png,stimsday1details/cn30.png,stimsday1details/ct30.png,0,5,5,2,0,0,0,0,,,,,,,,,,,,,,,,,,,,,,,,,,,,,,,,,,,,,,,,,,,,,,,,,,,,,,,,,,,,,,,,,,,3.835465759038925e-05,None,1,0.7666048230603337,840.3445663060993,None,840.3445663060993,None,840.3445663060993,None,842.3445225683972,None,2,0.7900875462219119,842.3445225683972,None,842.3445225683972,None,844.3492079880089,None,844.3492079880089,None,1,0.7145440792664886,844.3492079880089,None,1,0.9681419059634209,846.3448282228783,None,846.3448282228783,None,846.3448282228783,None,848.3441406833008,None,848.3441406833008,None,2,0.6678750785067677,848.3441406833008,None,850.3440765561536,None,2,0.789691124111414,850.3440765561536,None,850.3440765561536,None,001,38,2020_Jan_13_1554,Block2,3.1.2,59.981559670741156,
