northOrSouth,stimFile1a,stimFile1b,stimFile2,stimFile3,stimFile4,stimFile5,Qeggpainting1,Qeggpainting2,Qcharacter1,Qcharacter2,Qgift1,Qgift2,Qname1,Qname2,Qtheme1,Qtheme2,trials.thisRepN,trials.thisTrialN,trials.thisN,trials.thisIndex,South.thisRepN,South.thisTrialN,South.thisN,South.thisIndex,North.thisRepN,North.thisTrialN,North.thisN,North.thisIndex,noQtrials.thisRepN,noQtrials.thisTrialN,noQtrials.thisN,noQtrials.thisIndex,Qtrials.thisRepN,Qtrials.thisTrialN,Qtrials.thisN,Qtrials.thisIndex,text.started,text.stopped,prep_trigger.keys,prep_trigger.rt,prep_trigger.started,prep_trigger.stopped,waiting.started,waiting.stopped,trigger.keys,trigger.rt,trigger.started,trigger.stopped,southCueImage.started,southCueImage.stopped,northCueImage.started,northCueImage.stopped,trialNoQs.started,trialNoQs.stopped,vid1a.started,vid1a.stopped,vid1b.started,vid1b.stopped,vid2.started,vid2.stopped,vid3.started,vid3.stopped,vid4.started,vid4.stopped,vid5.started,vid5.stopped,ISI2.started,ISI2.stopped,vid1a_q.started,vid1a_q.stopped,vid1b_q.started,vid1b_q.stopped,vid2_q.started,vid2_q.stopped,l2q.started,l2q.stopped,vid3_q.started,vid3_q.stopped,l3q.started,l3q.stopped,vid4_q.started,vid4_q.stopped,vid5_q.started,vid5_q.stopped,key_resp_2.keys,key_resp_2.rt,key_resp_2.started,key_resp_2.stopped,key_resp_3.keys,key_resp_3.rt,key_resp_3.started,key_resp_3.stopped,ISI7.started,ISI7.stopped,nameQresp.keys,nameQresp.rt,nameQresp.started,nameQresp.stopped,nameQ1.started,nameQ1.stopped,nameQ2.started,nameQ2.stopped,eggPainting1.started,eggPainting1.stopped,eggPaintingQresp.keys,eggPaintingQresp.rt,eggPaintingQresp.started,eggPaintingQresp.stopped,eggPainting2.started,eggPainting2.stopped,character1.started,character1.stopped,character2.started,character2.stopped,Qcharacter.keys,Qcharacter.rt,Qcharacter.started,Qcharacter.stopped,themeQresp.keys,themeQresp.rt,themeQresp.started,themeQresp.stopped,themeQ1.started,themeQ1.stopped,themeQ2.started,themeQ2.stopped,gift1.started,gift1.stopped,gift2.started,gift2.stopped,giftQresp.keys,giftQresp.rt,giftQresp.started,giftQresp.stopped,northorsouth1.started,northorsouth1.stopped,northorsouth2.started,northorsouth2.stopped,northOrSouthQ.keys,northOrSouthQ.rt,northOrSouthQ.started,northOrSouthQ.stopped,session,participant,date,expName,psychopyVersion,frameRate,
,,,,,,,,,,,,,,,,,,,,,,,,,,,,,,,,,,,,,5.47280734218657,None,g,0.6202120305970311,5.47280734218657,None,,,,,,,,,,,,,,,,,,,,,,,,,,,,,,,,,,,,,,,,,,,,,,,,,,,,,,,,,,,,,,,,,,,,,,,,,,,,,,,,,,,,,,,,,,,,,,,,,,,,,001,37,2020_Jan_14_1337,viewing,3.1.2,60.00081059686701,
,,,,,,,,,,,,,,,,,,,,,,,,,,,,,,,,,,,,,,,,,,,6.105303404852748,None,equal,16.48538647312671,6.105303404852748,None,,,,,,,,,,,,,,,,,,,,,,,,,,,,,,,,,,,,,,,,,,,,,,,,,,,,,,,,,,,,,,,,,,,,,,,,,,,,,,,,,,,,,,,,,,,,,,,001,37,2020_Jan_14_1337,viewing,3.1.2,60.00081059686701,
south.png,stims/wedding-17.1a.mp4,stims/wedding-17.1b.mp4,stims/wedding-17.2a.mp4,stims/wedding-17.3b.mp4,stims/wedding-17.4a.mp4,stims/wedding-17.5.mp4,stimsday2details/newegg13.png,stimsday2details/egg17.png,stimsday2details/couple17.png,stimsday2details/newperson25.png,stimsday2details/gift17.png,stimsday2details/new25.png,stimsday2details/cn17.png,stimsday2details/n17.png,stimsday2details/t17.png,stimsday2details/ct17.png,0,0,0,0,0,0,0,0,,,,,,,,,,,,,,,,,,,,,,,,,22.638351608999074,None,,,,,,,,,,,,,,,,,,,,,,,,,,,,,,,,,,,,,,,,,,,,,,,,,,,,,,,,,,,,,,,,,,,,,,,,,,,,,,,,,,,,,,,,,,,,,001,37,2020_Jan_14_1337,viewing,3.1.2,60.00081059686701,
south.png,stims/wedding-17.1a.mp4,stims/wedding-17.1b.mp4,stims/wedding-17.2a.mp4,stims/wedding-17.3b.mp4,stims/wedding-17.4a.mp4,stims/wedding-17.5.mp4,stimsday2details/newegg13.png,stimsday2details/egg17.png,stimsday2details/couple17.png,stimsday2details/newperson25.png,stimsday2details/gift17.png,stimsday2details/new25.png,stimsday2details/cn17.png,stimsday2details/n17.png,stimsday2details/t17.png,stimsday2details/ct17.png,0,0,0,0,,,,,0,0,0,0,,,,,,,,,,,,,,,,,,,,,,,None,None,,,,,,,,,,,,,,,,,,,,,,,,,,,,,,,,,,,,,,,,,,,,,,,,,,,,,,,,,,,,,,,,,,,,,,,,,,,,,,,,,,,,,,,,,,,001,37,2020_Jan_14_1337,viewing,3.1.2,60.00081059686701,
south.png,stims/wedding-17.1a.mp4,stims/wedding-17.1b.mp4,stims/wedding-17.2a.mp4,stims/wedding-17.3b.mp4,stims/wedding-17.4a.mp4,stims/wedding-17.5.mp4,stimsday2details/newegg13.png,stimsday2details/egg17.png,stimsday2details/couple17.png,stimsday2details/newperson25.png,stimsday2details/gift17.png,stimsday2details/new25.png,stimsday2details/cn17.png,stimsday2details/n17.png,stimsday2details/t17.png,stimsday2details/ct17.png,0,0,0,0,,,,,,,,,0,0,0,0,,,,,,,,,,,,,,,,,,,,,None,None,None,None,None,None,None,None,None,None,None,None,None,None,,,,,,,,,,,,,,,,,,,,,,,,,,,,,,,,,,,,,,,,,,,,,,,,,,,,,,,,,,,,,,,,,,,,,,,,,,,,,001,37,2020_Jan_14_1337,viewing,3.1.2,60.00081059686701,
south.png,stims/wedding-17.1a.mp4,stims/wedding-17.1b.mp4,stims/wedding-17.2a.mp4,stims/wedding-17.3b.mp4,stims/wedding-17.4a.mp4,stims/wedding-17.5.mp4,stimsday2details/newegg13.png,stimsday2details/egg17.png,stimsday2details/couple17.png,stimsday2details/newperson25.png,stimsday2details/gift17.png,stimsday2details/new25.png,stimsday2details/cn17.png,stimsday2details/n17.png,stimsday2details/t17.png,stimsday2details/ct17.png,0,0,0,0,,,,,,,,,,,,,0,0,0,0,,,,,,,,,,,,,,,,,,,,,,,,,,,,,,,2.8452791506424546,None,35.72234530188143,None,60.888134967535734,None,69.88777577131987,86.88762128911912,86.88762128911912,90.88757621962577,90.88757621962577,113.88728501275182,113.88728501275182,117.88723544590175,117.88723544590175,None,141.8871298385784,None,['2'],[3.602058340795338],85.92098144441843,90.88757621962577,['1'],[2.6022864943370223],112.88730302080512,117.88723544590175,,,,,,,,,,,,,,,,,,,,,,,,,,,,,,,,,,,,,,,,,,,,,,,,,,,001,37,2020_Jan_14_1337,viewing,3.1.2,60.00081059686701,
south.png,stims/wedding-17.1a.mp4,stims/wedding-17.1b.mp4,stims/wedding-17.2a.mp4,stims/wedding-17.3b.mp4,stims/wedding-17.4a.mp4,stims/wedding-17.5.mp4,stimsday2details/newegg13.png,stimsday2details/egg17.png,stimsday2details/couple17.png,stimsday2details/newperson25.png,stimsday2details/gift17.png,stimsday2details/new25.png,stimsday2details/cn17.png,stimsday2details/n17.png,stimsday2details/t17.png,stimsday2details/ct17.png,0,0,0,0,,,,,,,,,,,,,,,,,,,,,,,,,,,,,,,,,,,,,,,,,,,,,,,,,,,,,,,,,,,,,,,,,,,,,,,,,3.2288022339344025e-05,None,2,0.9855052195489407,162.48688950017095,None,162.48688950017095,None,162.48688950017095,None,164.46999175380915,None,2,0.7016853857785463,164.46999175380915,None,164.46999175380915,None,166.46996074076742,None,166.46996074076742,None,1,0.7521796580404043,166.46996074076742,None,1,0.8523067282512784,168.46986554004252,None,168.46986554004252,None,168.46986554004252,None,170.47009868361056,None,170.47009868361056,None,1,0.6021496308967471,170.47009868361056,None,172.46988734789193,None,172.46988734789193,None,2,0.6022813376039267,172.46988734789193,None,001,37,2020_Jan_14_1337,viewing,3.1.2,60.00081059686701,
north.png,stims/wedding-28.1a.mp4,stims/wedding-28.1b.mp4,stims/wedding-28.2b.mp4,stims/wedding-28.3b.mp4,stims/wedding-28.4b.mp4,stims/wedding-28.5.mp4,stimsday2details/newpainting13.png,stimsday2details/painting28.png,stimsday2details/newperson26.png,stimsday2details/couple28.png,stimsday2details/gift28.png,stimsday2details/new26.png,stimsday2details/cn28.png,stimsday2details/n28.png,stimsday2details/ct28.png,stimsday2details/t28.png,0,1,1,1,0,0,0,0,,,,,,,,,,,,,,,,,,,,,,,,,None,None,,,,,,,,,,,,,,,,,,,,,,,,,,,,,,,,,,,,,,,,,,,,,,,,,,,,,,,,,,,,,,,,,,,,,,,,,,,,,,,,,,,,,,,,,,,,,001,37,2020_Jan_14_1337,viewing,3.1.2,60.00081059686701,
north.png,stims/wedding-28.1a.mp4,stims/wedding-28.1b.mp4,stims/wedding-28.2b.mp4,stims/wedding-28.3b.mp4,stims/wedding-28.4b.mp4,stims/wedding-28.5.mp4,stimsday2details/newpainting13.png,stimsday2details/painting28.png,stimsday2details/newperson26.png,stimsday2details/couple28.png,stimsday2details/gift28.png,stimsday2details/new26.png,stimsday2details/cn28.png,stimsday2details/n28.png,stimsday2details/ct28.png,stimsday2details/t28.png,0,1,1,1,,,,,0,0,0,0,,,,,,,,,,,,,,,,,,,,,,,174.5200672307983,None,,,,,,,,,,,,,,,,,,,,,,,,,,,,,,,,,,,,,,,,,,,,,,,,,,,,,,,,,,,,,,,,,,,,,,,,,,,,,,,,,,,,,,,,,,,001,37,2020_Jan_14_1337,viewing,3.1.2,60.00081059686701,
north.png,stims/wedding-28.1a.mp4,stims/wedding-28.1b.mp4,stims/wedding-28.2b.mp4,stims/wedding-28.3b.mp4,stims/wedding-28.4b.mp4,stims/wedding-28.5.mp4,stimsday2details/newpainting13.png,stimsday2details/painting28.png,stimsday2details/newperson26.png,stimsday2details/couple28.png,stimsday2details/gift28.png,stimsday2details/new26.png,stimsday2details/cn28.png,stimsday2details/n28.png,stimsday2details/ct28.png,stimsday2details/t28.png,0,1,1,1,,,,,,,,,0,0,0,0,,,,,,,,,,,,,,,,,,,,,2.8862287597730756,None,184.4533212967217,209.56948448345065,209.5860940311104,None,218.58597949240357,None,235.5859212288633,258.56877099443227,258.58565648272634,None,282.5851264363155,None,,,,,,,,,,,,,,,,,,,,,,,,,,,,,,,,,,,,,,,,,,,,,,,,,,,,,,,,,,,,,,,,,,,,,,,,,,,,,001,37,2020_Jan_14_1337,viewing,3.1.2,60.00081059686701,
north.png,stims/wedding-28.1a.mp4,stims/wedding-28.1b.mp4,stims/wedding-28.2b.mp4,stims/wedding-28.3b.mp4,stims/wedding-28.4b.mp4,stims/wedding-28.5.mp4,stimsday2details/newpainting13.png,stimsday2details/painting28.png,stimsday2details/newperson26.png,stimsday2details/couple28.png,stimsday2details/gift28.png,stimsday2details/new26.png,stimsday2details/cn28.png,stimsday2details/n28.png,stimsday2details/ct28.png,stimsday2details/t28.png,0,1,1,1,,,,,,,,,,,,,0,0,0,0,,,,,,,,,,,,,,,,,,,,,,,,,,,,,,,None,None,None,None,None,None,None,None,None,None,None,None,None,None,None,None,None,None,None,,None,None,None,,None,None,,,,,,,,,,,,,,,,,,,,,,,,,,,,,,,,,,,,,,,,,,,,,,,,,,,001,37,2020_Jan_14_1337,viewing,3.1.2,60.00081059686701,
north.png,stims/wedding-28.1a.mp4,stims/wedding-28.1b.mp4,stims/wedding-28.2b.mp4,stims/wedding-28.3b.mp4,stims/wedding-28.4b.mp4,stims/wedding-28.5.mp4,stimsday2details/newpainting13.png,stimsday2details/painting28.png,stimsday2details/newperson26.png,stimsday2details/couple28.png,stimsday2details/gift28.png,stimsday2details/new26.png,stimsday2details/cn28.png,stimsday2details/n28.png,stimsday2details/ct28.png,stimsday2details/t28.png,0,1,1,1,,,,,,,,,,,,,,,,,,,,,,,,,,,,,,,,,,,,,,,,,,,,,,,,,,,,,,,,,,,,,,,,,,,,,,,,,2.925097942352295e-05,None,2,1.004428816959262,306.56832580827177,None,306.56832580827177,None,306.56832580827177,None,308.5683711497113,None,2,0.7854475295171142,308.5683711497113,None,308.5683711497113,None,310.5682005882263,None,310.5682005882263,None,2,0.7520520789548755,310.5682005882263,None,2,0.9523993413895369,312.56814765837044,None,312.56814765837044,None,312.56814765837044,None,314.56812047585845,None,314.56812047585845,None,1,0.768418051302433,314.56812047585845,None,316.56809249240905,None,316.56809249240905,None,1,0.40277064591646194,316.56809249240905,None,001,37,2020_Jan_14_1337,viewing,3.1.2,60.00081059686701,
north.png,stims/wedding-1.1a.mp4,stims/wedding-1.1b.mp4,stims/wedding-1.2b.mp4,stims/wedding-1.3b.mp4,stims/wedding-1.4b.mp4,stims/wedding-1.5.mp4,stimsday2details/painting1.png,stimsday2details/newpainting14.png,stimsday2details/couple1.png,stimsday2details/newperson27.png,stimsday2details/new27.png,stimsday2details/gift1.png,stimsday2details/cn1.png,stimsday2details/n1.png,stimsday2details/t1.png,stimsday2details/ct1.png,0,2,2,2,0,0,0,0,,,,,,,,,,,,,,,,,,,,,,,,,None,None,,,,,,,,,,,,,,,,,,,,,,,,,,,,,,,,,,,,,,,,,,,,,,,,,,,,,,,,,,,,,,,,,,,,,,,,,,,,,,,,,,,,,,,,,,,,,001,37,2020_Jan_14_1337,viewing,3.1.2,60.00081059686701,
north.png,stims/wedding-1.1a.mp4,stims/wedding-1.1b.mp4,stims/wedding-1.2b.mp4,stims/wedding-1.3b.mp4,stims/wedding-1.4b.mp4,stims/wedding-1.5.mp4,stimsday2details/painting1.png,stimsday2details/newpainting14.png,stimsday2details/couple1.png,stimsday2details/newperson27.png,stimsday2details/new27.png,stimsday2details/gift1.png,stimsday2details/cn1.png,stimsday2details/n1.png,stimsday2details/t1.png,stimsday2details/ct1.png,0,2,2,2,,,,,0,0,0,0,,,,,,,,,,,,,,,,,,,,,,,318.6347003253177,None,,,,,,,,,,,,,,,,,,,,,,,,,,,,,,,,,,,,,,,,,,,,,,,,,,,,,,,,,,,,,,,,,,,,,,,,,,,,,,,,,,,,,,,,,,,001,37,2020_Jan_14_1337,viewing,3.1.2,60.00081059686701,
north.png,stims/wedding-1.1a.mp4,stims/wedding-1.1b.mp4,stims/wedding-1.2b.mp4,stims/wedding-1.3b.mp4,stims/wedding-1.4b.mp4,stims/wedding-1.5.mp4,stimsday2details/painting1.png,stimsday2details/newpainting14.png,stimsday2details/couple1.png,stimsday2details/newperson27.png,stimsday2details/new27.png,stimsday2details/gift1.png,stimsday2details/cn1.png,stimsday2details/n1.png,stimsday2details/t1.png,stimsday2details/ct1.png,0,2,2,2,,,,,,,,,0,0,0,0,,,,,,,,,,,,,,,,,,,,,2.9329620506614447,None,328.63467238564044,353.7009635102004,353.71763690840453,None,362.71770148165524,None,379.7174318144098,402.7172145694494,402.7172145694494,426.71664337813854,426.71664337813854,None,,,,,,,,,,,,,,,,,,,,,,,,,,,,,,,,,,,,,,,,,,,,,,,,,,,,,,,,,,,,,,,,,,,,,,,,,,,,,001,37,2020_Jan_14_1337,viewing,3.1.2,60.00081059686701,
north.png,stims/wedding-1.1a.mp4,stims/wedding-1.1b.mp4,stims/wedding-1.2b.mp4,stims/wedding-1.3b.mp4,stims/wedding-1.4b.mp4,stims/wedding-1.5.mp4,stimsday2details/painting1.png,stimsday2details/newpainting14.png,stimsday2details/couple1.png,stimsday2details/newperson27.png,stimsday2details/new27.png,stimsday2details/gift1.png,stimsday2details/cn1.png,stimsday2details/n1.png,stimsday2details/t1.png,stimsday2details/ct1.png,0,2,2,2,,,,,,,,,,,,,0,0,0,0,,,,,,,,,,,,,,,,,,,,,,,,,,,,,,,None,None,None,None,None,None,None,None,None,None,None,None,None,None,None,None,None,None,None,,None,None,None,,None,None,,,,,,,,,,,,,,,,,,,,,,,,,,,,,,,,,,,,,,,,,,,,,,,,,,,001,37,2020_Jan_14_1337,viewing,3.1.2,60.00081059686701,
north.png,stims/wedding-1.1a.mp4,stims/wedding-1.1b.mp4,stims/wedding-1.2b.mp4,stims/wedding-1.3b.mp4,stims/wedding-1.4b.mp4,stims/wedding-1.5.mp4,stimsday2details/painting1.png,stimsday2details/newpainting14.png,stimsday2details/couple1.png,stimsday2details/newperson27.png,stimsday2details/new27.png,stimsday2details/gift1.png,stimsday2details/cn1.png,stimsday2details/n1.png,stimsday2details/t1.png,stimsday2details/ct1.png,0,2,2,2,,,,,,,,,,,,,,,,,,,,,,,,,,,,,,,,,,,,,,,,,,,,,,,,,,,,,,,,,,,,,,,,,,,,,,,,,3.615953028202057e-05,None,2,1.0192459812387824,450.28309924621135,None,450.28309924621135,None,450.28309924621135,None,452.28301098383963,None,1,0.7869492014870048,452.28301098383963,None,452.28301098383963,None,454.2831932110712,None,454.2831932110712,None,1,0.7355435937643051,454.2831932110712,None,1,1.085565559566021,456.2829549321905,None,456.2829549321905,None,456.2829549321905,None,458.2831730786711,None,458.2831730786711,None,2,0.8522640829905868,458.2831730786711,None,460.2829119153321,None,460.2829119153321,None,1,0.5689043570309877,460.2829119153321,None,001,37,2020_Jan_14_1337,viewing,3.1.2,60.00081059686701,
south.png,stims/wedding-29.1a.mp4,stims/wedding-29.1b.mp4,stims/wedding-29.2a.mp4,stims/wedding-29.3b.mp4,stims/wedding-29.4a.mp4,stims/wedding-29.5.mp4,stimsday2details/egg29.png,stimsday2details/newegg14.png,stimsday2details/couple29.png,stimsday2details/newperson28.png,stimsday2details/new28.png,stimsday2details/gift29.png,stimsday2details/cn29.png,stimsday2details/n29.png,stimsday2details/ct29.png,stimsday2details/t29.png,0,3,3,3,0,0,0,0,,,,,,,,,,,,,,,,,,,,,,,,,462.2830866696313,None,,,,,,,,,,,,,,,,,,,,,,,,,,,,,,,,,,,,,,,,,,,,,,,,,,,,,,,,,,,,,,,,,,,,,,,,,,,,,,,,,,,,,,,,,,,,,001,37,2020_Jan_14_1337,viewing,3.1.2,60.00081059686701,
south.png,stims/wedding-29.1a.mp4,stims/wedding-29.1b.mp4,stims/wedding-29.2a.mp4,stims/wedding-29.3b.mp4,stims/wedding-29.4a.mp4,stims/wedding-29.5.mp4,stimsday2details/egg29.png,stimsday2details/newegg14.png,stimsday2details/couple29.png,stimsday2details/newperson28.png,stimsday2details/new28.png,stimsday2details/gift29.png,stimsday2details/cn29.png,stimsday2details/n29.png,stimsday2details/ct29.png,stimsday2details/t29.png,0,3,3,3,,,,,0,0,0,0,,,,,,,,,,,,,,,,,,,,,,,None,None,,,,,,,,,,,,,,,,,,,,,,,,,,,,,,,,,,,,,,,,,,,,,,,,,,,,,,,,,,,,,,,,,,,,,,,,,,,,,,,,,,,,,,,,,,,001,37,2020_Jan_14_1337,viewing,3.1.2,60.00081059686701,
south.png,stims/wedding-29.1a.mp4,stims/wedding-29.1b.mp4,stims/wedding-29.2a.mp4,stims/wedding-29.3b.mp4,stims/wedding-29.4a.mp4,stims/wedding-29.5.mp4,stimsday2details/egg29.png,stimsday2details/newegg14.png,stimsday2details/couple29.png,stimsday2details/newperson28.png,stimsday2details/new28.png,stimsday2details/gift29.png,stimsday2details/cn29.png,stimsday2details/n29.png,stimsday2details/ct29.png,stimsday2details/t29.png,0,3,3,3,,,,,,,,,0,0,0,0,,,,,,,,,,,,,,,,,,,,,3.018012721091509,None,472.48512708581984,497.465828104876,497.4827059311792,None,506.48258336633444,None,523.4823174532503,546.4651520047337,546.4818830434233,None,570.4817525716498,None,,,,,,,,,,,,,,,,,,,,,,,,,,,,,,,,,,,,,,,,,,,,,,,,,,,,,,,,,,,,,,,,,,,,,,,,,,,,,001,37,2020_Jan_14_1337,viewing,3.1.2,60.00081059686701,
south.png,stims/wedding-29.1a.mp4,stims/wedding-29.1b.mp4,stims/wedding-29.2a.mp4,stims/wedding-29.3b.mp4,stims/wedding-29.4a.mp4,stims/wedding-29.5.mp4,stimsday2details/egg29.png,stimsday2details/newegg14.png,stimsday2details/couple29.png,stimsday2details/newperson28.png,stimsday2details/new28.png,stimsday2details/gift29.png,stimsday2details/cn29.png,stimsday2details/n29.png,stimsday2details/ct29.png,stimsday2details/t29.png,0,3,3,3,,,,,,,,,,,,,0,0,0,0,,,,,,,,,,,,,,,,,,,,,,,,,,,,,,,None,None,None,None,None,None,None,None,None,None,None,None,None,None,None,None,None,None,None,,None,None,None,,None,None,,,,,,,,,,,,,,,,,,,,,,,,,,,,,,,,,,,,,,,,,,,,,,,,,,,001,37,2020_Jan_14_1337,viewing,3.1.2,60.00081059686701,
south.png,stims/wedding-29.1a.mp4,stims/wedding-29.1b.mp4,stims/wedding-29.2a.mp4,stims/wedding-29.3b.mp4,stims/wedding-29.4a.mp4,stims/wedding-29.5.mp4,stimsday2details/egg29.png,stimsday2details/newegg14.png,stimsday2details/couple29.png,stimsday2details/newperson28.png,stimsday2details/new28.png,stimsday2details/gift29.png,stimsday2details/cn29.png,stimsday2details/n29.png,stimsday2details/ct29.png,stimsday2details/t29.png,0,3,3,3,,,,,,,,,,,,,,,,,,,,,,,,,,,,,,,,,,,,,,,,,,,,,,,,,,,,,,,,,,,,,,,,,,,,,,,,,3.805477172136307e-05,None,2,1.0516056399792433,593.9487675875425,None,593.9487675875425,None,593.9487675875425,None,595.9312461810187,None,1,0.802480454556644,595.9312461810187,None,595.9312461810187,None,597.9312314726412,None,597.9312314726412,None,1,0.7187736108899117,597.9312314726412,None,2,0.7685887599363923,599.9312074445188,None,599.9312074445188,None,599.9312074445188,None,601.9311847472563,None,601.9311847472563,None,2,0.8356814570724964,601.9311847472563,None,603.9311526045203,None,603.9311526045203,None,2,1.0523021323606372,603.9311526045203,None,001,37,2020_Jan_14_1337,viewing,3.1.2,60.00081059686701,
south.png,stims/wedding-38.1a.mp4,stims/wedding-38.1b.mp4,stims/wedding-38.2b.mp4,stims/wedding-38.3a.mp4,stims/wedding-38.4b.mp4,stims/wedding-38.5.mp4,stimsday2details/newpainting15.png,stimsday2details/painting38.png,stimsday2details/couple38.png,stimsday2details/newperson29.png,stimsday2details/new29.png,stimsday2details/gift38.png,stimsday2details/n38.png,stimsday2details/cn38.png,stimsday2details/t38.png,stimsday2details/ct38.png,0,4,4,4,0,0,0,0,,,,,,,,,,,,,,,,,,,,,,,,,605.9311354141682,None,,,,,,,,,,,,,,,,,,,,,,,,,,,,,,,,,,,,,,,,,,,,,,,,,,,,,,,,,,,,,,,,,,,,,,,,,,,,,,,,,,,,,,,,,,,,,001,37,2020_Jan_14_1337,viewing,3.1.2,60.00081059686701,
south.png,stims/wedding-38.1a.mp4,stims/wedding-38.1b.mp4,stims/wedding-38.2b.mp4,stims/wedding-38.3a.mp4,stims/wedding-38.4b.mp4,stims/wedding-38.5.mp4,stimsday2details/newpainting15.png,stimsday2details/painting38.png,stimsday2details/couple38.png,stimsday2details/newperson29.png,stimsday2details/new29.png,stimsday2details/gift38.png,stimsday2details/n38.png,stimsday2details/cn38.png,stimsday2details/t38.png,stimsday2details/ct38.png,0,4,4,4,,,,,0,0,0,0,,,,,,,,,,,,,,,,,,,,,,,None,None,,,,,,,,,,,,,,,,,,,,,,,,,,,,,,,,,,,,,,,,,,,,,,,,,,,,,,,,,,,,,,,,,,,,,,,,,,,,,,,,,,,,,,,,,,,001,37,2020_Jan_14_1337,viewing,3.1.2,60.00081059686701,
south.png,stims/wedding-38.1a.mp4,stims/wedding-38.1b.mp4,stims/wedding-38.2b.mp4,stims/wedding-38.3a.mp4,stims/wedding-38.4b.mp4,stims/wedding-38.5.mp4,stimsday2details/newpainting15.png,stimsday2details/painting38.png,stimsday2details/couple38.png,stimsday2details/newperson29.png,stimsday2details/new29.png,stimsday2details/gift38.png,stimsday2details/n38.png,stimsday2details/cn38.png,stimsday2details/t38.png,stimsday2details/ct38.png,0,4,4,4,,,,,,,,,0,0,0,0,,,,,,,,,,,,,,,,,,,,,2.9238096745684743,None,616.0860020536929,641.1641553966329,641.1641553966329,None,650.1639132760465,None,667.1638795156032,690.1635784097016,690.1635784097016,None,714.1631001392379,None,,,,,,,,,,,,,,,,,,,,,,,,,,,,,,,,,,,,,,,,,,,,,,,,,,,,,,,,,,,,,,,,,,,,,,,,,,,,,001,37,2020_Jan_14_1337,viewing,3.1.2,60.00081059686701,
south.png,stims/wedding-38.1a.mp4,stims/wedding-38.1b.mp4,stims/wedding-38.2b.mp4,stims/wedding-38.3a.mp4,stims/wedding-38.4b.mp4,stims/wedding-38.5.mp4,stimsday2details/newpainting15.png,stimsday2details/painting38.png,stimsday2details/couple38.png,stimsday2details/newperson29.png,stimsday2details/new29.png,stimsday2details/gift38.png,stimsday2details/n38.png,stimsday2details/cn38.png,stimsday2details/t38.png,stimsday2details/ct38.png,0,4,4,4,,,,,,,,,,,,,0,0,0,0,,,,,,,,,,,,,,,,,,,,,,,,,,,,,,,None,None,None,None,None,None,None,None,None,None,None,None,None,None,None,None,None,None,None,,None,None,None,,None,None,,,,,,,,,,,,,,,,,,,,,,,,,,,,,,,,,,,,,,,,,,,,,,,,,,,001,37,2020_Jan_14_1337,viewing,3.1.2,60.00081059686701,
south.png,stims/wedding-38.1a.mp4,stims/wedding-38.1b.mp4,stims/wedding-38.2b.mp4,stims/wedding-38.3a.mp4,stims/wedding-38.4b.mp4,stims/wedding-38.5.mp4,stimsday2details/newpainting15.png,stimsday2details/painting38.png,stimsday2details/couple38.png,stimsday2details/newperson29.png,stimsday2details/new29.png,stimsday2details/gift38.png,stimsday2details/n38.png,stimsday2details/cn38.png,stimsday2details/t38.png,stimsday2details/ct38.png,0,4,4,4,,,,,,,,,,,,,,,,,,,,,,,,,,,,,,,,,,,,,,,,,,,,,,,,,,,,,,,,,,,,,,,,,,,,,,,,,3.8528814911842346e-05,None,1,0.9980691084638238,737.9669929835945,None,737.9669929835945,None,737.9669929835945,None,739.9461152367294,None,2,1.135752683505416,739.9461152367294,None,739.9461152367294,None,741.9460833016783,None,741.9460833016783,None,1,0.752069253474474,741.9460833016783,None,1,0.8020520163699985,743.946054992266,None,743.946054992266,None,743.946054992266,None,745.9460300505161,None,745.9460300505161,None,2,0.9688512580469251,745.9460300505161,None,747.9460047641769,None,747.9460047641769,None,2,0.9020308647304773,747.9460047641769,None,001,37,2020_Jan_14_1337,viewing,3.1.2,60.00081059686701,
north.png,stims/wedding-2.1a.mp4,stims/wedding-2.1b.mp4,stims/wedding-2.2b.mp4,stims/wedding-2.3b.mp4,stims/wedding-2.4b.mp4,stims/wedding-2.5.mp4,stimsday2details/newpainting16.png,stimsday2details/painting2.png,stimsday2details/newperson30.png,stimsday2details/couple2.png,stimsday2details/new30.png,stimsday2details/gift2.png,stimsday2details/cn2.png,stimsday2details/n2.png,stimsday2details/ct2.png,stimsday2details/t2.png,0,5,5,5,0,0,0,0,,,,,,,,,,,,,,,,,,,,,,,,,None,None,,,,,,,,,,,,,,,,,,,,,,,,,,,,,,,,,,,,,,,,,,,,,,,,,,,,,,,,,,,,,,,,,,,,,,,,,,,,,,,,,,,,,,,,,,,,,001,37,2020_Jan_14_1337,viewing,3.1.2,60.00081059686701,
north.png,stims/wedding-2.1a.mp4,stims/wedding-2.1b.mp4,stims/wedding-2.2b.mp4,stims/wedding-2.3b.mp4,stims/wedding-2.4b.mp4,stims/wedding-2.5.mp4,stimsday2details/newpainting16.png,stimsday2details/painting2.png,stimsday2details/newperson30.png,stimsday2details/couple2.png,stimsday2details/new30.png,stimsday2details/gift2.png,stimsday2details/cn2.png,stimsday2details/n2.png,stimsday2details/ct2.png,stimsday2details/t2.png,0,5,5,5,,,,,0,0,0,0,,,,,,,,,,,,,,,,,,,,,,,750.0792547846213,None,,,,,,,,,,,,,,,,,,,,,,,,,,,,,,,,,,,,,,,,,,,,,,,,,,,,,,,,,,,,,,,,,,,,,,,,,,,,,,,,,,,,,,,,,,,001,37,2020_Jan_14_1337,viewing,3.1.2,60.00081059686701,
north.png,stims/wedding-2.1a.mp4,stims/wedding-2.1b.mp4,stims/wedding-2.2b.mp4,stims/wedding-2.3b.mp4,stims/wedding-2.4b.mp4,stims/wedding-2.5.mp4,stimsday2details/newpainting16.png,stimsday2details/painting2.png,stimsday2details/newperson30.png,stimsday2details/couple2.png,stimsday2details/new30.png,stimsday2details/gift2.png,stimsday2details/cn2.png,stimsday2details/n2.png,stimsday2details/ct2.png,stimsday2details/t2.png,0,5,5,5,,,,,,,,,0,0,0,0,,,,,,,,,,,,,,,,,,,,,2.952704439871013,None,760.1625853804871,None,785.2288733208552,None,794.2289521591738,None,811.2287473836914,834.2117676185444,834.2284546401352,858.2114712232724,858.2280657440424,None,,,,,,,,,,,,,,,,,,,,,,,,,,,,,,,,,,,,,,,,,,,,,,,,,,,,,,,,,,,,,,,,,,,,,,,,,,,,,001,37,2020_Jan_14_1337,viewing,3.1.2,60.00081059686701,
north.png,stims/wedding-2.1a.mp4,stims/wedding-2.1b.mp4,stims/wedding-2.2b.mp4,stims/wedding-2.3b.mp4,stims/wedding-2.4b.mp4,stims/wedding-2.5.mp4,stimsday2details/newpainting16.png,stimsday2details/painting2.png,stimsday2details/newperson30.png,stimsday2details/couple2.png,stimsday2details/new30.png,stimsday2details/gift2.png,stimsday2details/cn2.png,stimsday2details/n2.png,stimsday2details/ct2.png,stimsday2details/t2.png,0,5,5,5,,,,,,,,,,,,,0,0,0,0,,,,,,,,,,,,,,,,,,,,,,,,,,,,,,,None,None,None,None,None,None,None,None,None,None,None,None,None,None,None,None,None,None,None,,None,None,None,,None,None,,,,,,,,,,,,,,,,,,,,,,,,,,,,,,,,,,,,,,,,,,,,,,,,,,,001,37,2020_Jan_14_1337,viewing,3.1.2,60.00081059686701,
north.png,stims/wedding-2.1a.mp4,stims/wedding-2.1b.mp4,stims/wedding-2.2b.mp4,stims/wedding-2.3b.mp4,stims/wedding-2.4b.mp4,stims/wedding-2.5.mp4,stimsday2details/newpainting16.png,stimsday2details/painting2.png,stimsday2details/newperson30.png,stimsday2details/couple2.png,stimsday2details/new30.png,stimsday2details/gift2.png,stimsday2details/cn2.png,stimsday2details/n2.png,stimsday2details/ct2.png,stimsday2details/t2.png,0,5,5,5,,,,,,,,,,,,,,,,,,,,,,,,,,,,,,,,,,,,,,,,,,,,,,,,,,,,,,,,,,,,,,,,,,,,,,,,,4.15043905377388e-05,None,2,1.1522824699059129,882.1443713298067,None,882.1443713298067,None,882.1443713298067,None,884.1442293711007,None,2,0.8188068689778447,884.1442293711007,None,884.1442293711007,None,886.1443112548441,None,886.1443112548441,None,2,1.0523117696866393,886.1443112548441,None,2,1.2855240842327476,888.1442390885204,None,888.1442390885204,None,888.1442390885204,None,890.1442066626623,None,890.1442066626623,None,2,1.0169987017288804,890.1442066626623,None,892.1441904110834,None,892.1441904110834,None,1,0.3357827039435506,892.1441904110834,None,001,37,2020_Jan_14_1337,viewing,3.1.2,60.00081059686701,
north.png,stims/wedding-19.1a.mp4,stims/wedding-19.1b.mp4,stims/wedding-19.2a.mp4,stims/wedding-19.3a.mp4,stims/wedding-19.4a.mp4,stims/wedding-19.5.mp4,stimsday2details/egg19.png,stimsday2details/newegg15.png,stimsday2details/couple19.png,stimsday2details/newperson31.png,stimsday2details/gift19.png,stimsday2details/new31.png,stimsday2details/n19.png,stimsday2details/cn19.png,stimsday2details/t19.png,stimsday2details/ct19.png,0,6,6,6,0,0,0,0,,,,,,,,,,,,,,,,,,,,,,,,,None,None,,,,,,,,,,,,,,,,,,,,,,,,,,,,,,,,,,,,,,,,,,,,,,,,,,,,,,,,,,,,,,,,,,,,,,,,,,,,,,,,,,,,,,,,,,,,,001,37,2020_Jan_14_1337,viewing,3.1.2,60.00081059686701,
north.png,stims/wedding-19.1a.mp4,stims/wedding-19.1b.mp4,stims/wedding-19.2a.mp4,stims/wedding-19.3a.mp4,stims/wedding-19.4a.mp4,stims/wedding-19.5.mp4,stimsday2details/egg19.png,stimsday2details/newegg15.png,stimsday2details/couple19.png,stimsday2details/newperson31.png,stimsday2details/gift19.png,stimsday2details/new31.png,stimsday2details/n19.png,stimsday2details/cn19.png,stimsday2details/t19.png,stimsday2details/ct19.png,0,6,6,6,,,,,0,0,0,0,,,,,,,,,,,,,,,,,,,,,,,894.3108300911263,None,,,,,,,,,,,,,,,,,,,,,,,,,,,,,,,,,,,,,,,,,,,,,,,,,,,,,,,,,,,,,,,,,,,,,,,,,,,,,,,,,,,,,,,,,,,001,37,2020_Jan_14_1337,viewing,3.1.2,60.00081059686701,
north.png,stims/wedding-19.1a.mp4,stims/wedding-19.1b.mp4,stims/wedding-19.2a.mp4,stims/wedding-19.3a.mp4,stims/wedding-19.4a.mp4,stims/wedding-19.5.mp4,stimsday2details/egg19.png,stimsday2details/newegg15.png,stimsday2details/couple19.png,stimsday2details/newperson31.png,stimsday2details/gift19.png,stimsday2details/new31.png,stimsday2details/n19.png,stimsday2details/cn19.png,stimsday2details/t19.png,stimsday2details/ct19.png,0,6,6,6,,,,,,,,,0,0,0,0,,,,,,,,,,,,,,,,,,,,,3.0367296217009425,None,904.5275489715859,929.4772586775944,929.4772586775944,None,938.4769453080371,955.476918370463,955.476918370463,None,978.4765893248841,None,1002.4761302601546,None,,,,,,,,,,,,,,,,,,,,,,,,,,,,,,,,,,,,,,,,,,,,,,,,,,,,,,,,,,,,,,,,,,,,,,,,,,,,,001,37,2020_Jan_14_1337,viewing,3.1.2,60.00081059686701,
north.png,stims/wedding-19.1a.mp4,stims/wedding-19.1b.mp4,stims/wedding-19.2a.mp4,stims/wedding-19.3a.mp4,stims/wedding-19.4a.mp4,stims/wedding-19.5.mp4,stimsday2details/egg19.png,stimsday2details/newegg15.png,stimsday2details/couple19.png,stimsday2details/newperson31.png,stimsday2details/gift19.png,stimsday2details/new31.png,stimsday2details/n19.png,stimsday2details/cn19.png,stimsday2details/t19.png,stimsday2details/ct19.png,0,6,6,6,,,,,,,,,,,,,0,0,0,0,,,,,,,,,,,,,,,,,,,,,,,,,,,,,,,None,None,None,None,None,None,None,None,None,None,None,None,None,None,None,None,None,None,None,,None,None,None,,None,None,,,,,,,,,,,,,,,,,,,,,,,,,,,,,,,,,,,,,,,,,,,,,,,,,,,001,37,2020_Jan_14_1337,viewing,3.1.2,60.00081059686701,
north.png,stims/wedding-19.1a.mp4,stims/wedding-19.1b.mp4,stims/wedding-19.2a.mp4,stims/wedding-19.3a.mp4,stims/wedding-19.4a.mp4,stims/wedding-19.5.mp4,stimsday2details/egg19.png,stimsday2details/newegg15.png,stimsday2details/couple19.png,stimsday2details/newperson31.png,stimsday2details/gift19.png,stimsday2details/new31.png,stimsday2details/n19.png,stimsday2details/cn19.png,stimsday2details/t19.png,stimsday2details/ct19.png,0,6,6,6,,,,,,,,,,,,,,,,,,,,,,,,,,,,,,,,,,,,,,,,,,,,,,,,,,,,,,,,,,,,,,,,,,,,,,,,,3.4320168197155e-05,None,1,0.8480161903426051,1026.8128912597895,None,1026.8128912597895,None,1026.8128912597895,None,1028.792610310018,None,1,1.135251421481371,1028.792610310018,None,1028.792610310018,None,1030.792450687848,None,1030.792450687848,None,1,0.6504966272041202,1030.792450687848,None,1,0.8852343438193202,1032.7926019784063,None,1032.7926019784063,None,1032.7926019784063,None,1034.7925612609833,None,1034.7925612609833,None,1,0.7685845484957099,1034.7925612609833,None,1036.79254678078,None,1036.79254678078,None,None,,1036.79254678078,None,001,37,2020_Jan_14_1337,viewing,3.1.2,60.00081059686701,
south.png,stims/wedding-20.1a.mp4,stims/wedding-20.1b.mp4,stims/wedding-20.2a.mp4,stims/wedding-20.3b.mp4,stims/wedding-20.4a.mp4,stims/wedding-20.5.mp4,stimsday2details/newegg16.png,stimsday2details/egg20.png,stimsday2details/couple20.png,stimsday2details/newperson32.png,stimsday2details/new32.png,stimsday2details/gift20.png,stimsday2details/n20.png,stimsday2details/cn20.png,stimsday2details/ct20.png,stimsday2details/t20.png,0,7,7,7,0,0,0,0,,,,,,,,,,,,,,,,,,,,,,,,,1038.792350341566,None,,,,,,,,,,,,,,,,,,,,,,,,,,,,,,,,,,,,,,,,,,,,,,,,,,,,,,,,,,,,,,,,,,,,,,,,,,,,,,,,,,,,,,,,,,,,,001,37,2020_Jan_14_1337,viewing,3.1.2,60.00081059686701,
south.png,stims/wedding-20.1a.mp4,stims/wedding-20.1b.mp4,stims/wedding-20.2a.mp4,stims/wedding-20.3b.mp4,stims/wedding-20.4a.mp4,stims/wedding-20.5.mp4,stimsday2details/newegg16.png,stimsday2details/egg20.png,stimsday2details/couple20.png,stimsday2details/newperson32.png,stimsday2details/new32.png,stimsday2details/gift20.png,stimsday2details/n20.png,stimsday2details/cn20.png,stimsday2details/ct20.png,stimsday2details/t20.png,0,7,7,7,,,,,0,0,0,0,,,,,,,,,,,,,,,,,,,,,,,None,None,,,,,,,,,,,,,,,,,,,,,,,,,,,,,,,,,,,,,,,,,,,,,,,,,,,,,,,,,,,,,,,,,,,,,,,,,,,,,,,,,,,,,,,,,,,001,37,2020_Jan_14_1337,viewing,3.1.2,60.00081059686701,
south.png,stims/wedding-20.1a.mp4,stims/wedding-20.1b.mp4,stims/wedding-20.2a.mp4,stims/wedding-20.3b.mp4,stims/wedding-20.4a.mp4,stims/wedding-20.5.mp4,stimsday2details/newegg16.png,stimsday2details/egg20.png,stimsday2details/couple20.png,stimsday2details/newperson32.png,stimsday2details/new32.png,stimsday2details/gift20.png,stimsday2details/n20.png,stimsday2details/cn20.png,stimsday2details/ct20.png,stimsday2details/t20.png,0,7,7,7,,,,,,,,,0,0,0,0,,,,,,,,,,,,,,,,,,,,,2.9726324398070574,None,1049.125814148225,1074.1588135920465,1074.1754370005801,None,1083.175126215443,1100.1584089044482,1100.1750621162355,1123.1582136275247,1123.174804283306,1147.1576529098675,1147.1743273176253,None,,,,,,,,,,,,,,,,,,,,,,,,,,,,,,,,,,,,,,,,,,,,,,,,,,,,,,,,,,,,,,,,,,,,,,,,,,,,,001,37,2020_Jan_14_1337,viewing,3.1.2,60.00081059686701,
south.png,stims/wedding-20.1a.mp4,stims/wedding-20.1b.mp4,stims/wedding-20.2a.mp4,stims/wedding-20.3b.mp4,stims/wedding-20.4a.mp4,stims/wedding-20.5.mp4,stimsday2details/newegg16.png,stimsday2details/egg20.png,stimsday2details/couple20.png,stimsday2details/newperson32.png,stimsday2details/new32.png,stimsday2details/gift20.png,stimsday2details/n20.png,stimsday2details/cn20.png,stimsday2details/ct20.png,stimsday2details/t20.png,0,7,7,7,,,,,,,,,,,,,0,0,0,0,,,,,,,,,,,,,,,,,,,,,,,,,,,,,,,None,None,None,None,None,None,None,None,None,None,None,None,None,None,None,None,None,None,None,,None,None,None,,None,None,,,,,,,,,,,,,,,,,,,,,,,,,,,,,,,,,,,,,,,,,,,,,,,,,,,001,37,2020_Jan_14_1337,viewing,3.1.2,60.00081059686701,
south.png,stims/wedding-20.1a.mp4,stims/wedding-20.1b.mp4,stims/wedding-20.2a.mp4,stims/wedding-20.3b.mp4,stims/wedding-20.4a.mp4,stims/wedding-20.5.mp4,stimsday2details/newegg16.png,stimsday2details/egg20.png,stimsday2details/couple20.png,stimsday2details/newperson32.png,stimsday2details/new32.png,stimsday2details/gift20.png,stimsday2details/n20.png,stimsday2details/cn20.png,stimsday2details/ct20.png,stimsday2details/t20.png,0,7,7,7,,,,,,,,,,,,,,,,,,,,,,,,,,,,,,,,,,,,,,,,,,,,,,,,,,,,,,,,,,,,,,,,,,,,,,,,,8.8496133685112e-05,None,1,0.7020655451342463,1170.1576133742929,None,1170.1576133742929,None,1170.1576133742929,None,1172.1573440600187,None,2,1.3519726814702153,1172.1573440600187,None,1172.1573440600187,None,1174.1573176328093,None,1174.1573176328093,None,1,1.0186606356874108,1174.1573176328093,None,2,0.835831499658525,1176.1572940200567,None,1176.1572940200567,None,1176.1572940200567,None,1178.1572726489976,None,1178.1572726489976,None,2,0.6187034286558628,1178.1572726489976,None,1180.157443471253,None,1180.157443471253,None,2,0.7185413213446736,1180.157443471253,None,001,37,2020_Jan_14_1337,viewing,3.1.2,60.00081059686701,
south.png,stims/wedding-34.1a.mp4,stims/wedding-34.1b.mp4,stims/wedding-34.2b.mp4,stims/wedding-34.3a.mp4,stims/wedding-34.4b.mp4,stims/wedding-34.5.mp4,stimsday2details/painting34.png,stimsday2details/newpainting17.png,stimsday2details/newperson33.png,stimsday2details/couple34.png,stimsday2details/gift34.png,stimsday2details/new33.png,stimsday2details/n34.png,stimsday2details/cn34.png,stimsday2details/ct34.png,stimsday2details/t34.png,0,8,8,8,0,0,0,0,,,,,,,,,,,,,,,,,,,,,,,,,1182.1572182988748,None,,,,,,,,,,,,,,,,,,,,,,,,,,,,,,,,,,,,,,,,,,,,,,,,,,,,,,,,,,,,,,,,,,,,,,,,,,,,,,,,,,,,,,,,,,,,,001,37,2020_Jan_14_1337,viewing,3.1.2,60.00081059686701,
south.png,stims/wedding-34.1a.mp4,stims/wedding-34.1b.mp4,stims/wedding-34.2b.mp4,stims/wedding-34.3a.mp4,stims/wedding-34.4b.mp4,stims/wedding-34.5.mp4,stimsday2details/painting34.png,stimsday2details/newpainting17.png,stimsday2details/newperson33.png,stimsday2details/couple34.png,stimsday2details/gift34.png,stimsday2details/new33.png,stimsday2details/n34.png,stimsday2details/cn34.png,stimsday2details/ct34.png,stimsday2details/t34.png,0,8,8,8,,,,,0,0,0,0,,,,,,,,,,,,,,,,,,,,,,,None,None,,,,,,,,,,,,,,,,,,,,,,,,,,,,,,,,,,,,,,,,,,,,,,,,,,,,,,,,,,,,,,,,,,,,,,,,,,,,,,,,,,,,,,,,,,,001,37,2020_Jan_14_1337,viewing,3.1.2,60.00081059686701,
south.png,stims/wedding-34.1a.mp4,stims/wedding-34.1b.mp4,stims/wedding-34.2b.mp4,stims/wedding-34.3a.mp4,stims/wedding-34.4b.mp4,stims/wedding-34.5.mp4,stimsday2details/painting34.png,stimsday2details/newpainting17.png,stimsday2details/newperson33.png,stimsday2details/couple34.png,stimsday2details/gift34.png,stimsday2details/new33.png,stimsday2details/n34.png,stimsday2details/cn34.png,stimsday2details/ct34.png,stimsday2details/t34.png,0,8,8,8,,,,,,,,,0,0,0,0,,,,,,,,,,,,,,,,,,,,,2.913621629588306,None,1192.4740227246657,1217.556776497513,1217.573633347638,1226.5566173326224,1226.5733358021826,None,1243.5733206644654,None,1266.5728260083124,None,1290.5725286146626,None,,,,,,,,,,,,,,,,,,,,,,,,,,,,,,,,,,,,,,,,,,,,,,,,,,,,,,,,,,,,,,,,,,,,,,,,,,,,,001,37,2020_Jan_14_1337,viewing,3.1.2,60.00081059686701,
south.png,stims/wedding-34.1a.mp4,stims/wedding-34.1b.mp4,stims/wedding-34.2b.mp4,stims/wedding-34.3a.mp4,stims/wedding-34.4b.mp4,stims/wedding-34.5.mp4,stimsday2details/painting34.png,stimsday2details/newpainting17.png,stimsday2details/newperson33.png,stimsday2details/couple34.png,stimsday2details/gift34.png,stimsday2details/new33.png,stimsday2details/n34.png,stimsday2details/cn34.png,stimsday2details/ct34.png,stimsday2details/t34.png,0,8,8,8,,,,,,,,,,,,,0,0,0,0,,,,,,,,,,,,,,,,,,,,,,,,,,,,,,,None,None,None,None,None,None,None,None,None,None,None,None,None,None,None,None,None,None,None,,None,None,None,,None,None,,,,,,,,,,,,,,,,,,,,,,,,,,,,,,,,,,,,,,,,,,,,,,,,,,,001,37,2020_Jan_14_1337,viewing,3.1.2,60.00081059686701,
south.png,stims/wedding-34.1a.mp4,stims/wedding-34.1b.mp4,stims/wedding-34.2b.mp4,stims/wedding-34.3a.mp4,stims/wedding-34.4b.mp4,stims/wedding-34.5.mp4,stimsday2details/painting34.png,stimsday2details/newpainting17.png,stimsday2details/newperson33.png,stimsday2details/couple34.png,stimsday2details/gift34.png,stimsday2details/new33.png,stimsday2details/n34.png,stimsday2details/cn34.png,stimsday2details/ct34.png,stimsday2details/t34.png,0,8,8,8,,,,,,,,,,,,,,,,,,,,,,,,,,,,,,,,,,,,,,,,,,,,,,,,,,,,,,,,,,,,,,,,,,,,,,,,,4.0609389543533325e-05,None,1,0.8361458359286189,1314.172230027616,None,1314.172230027616,None,1314.172230027616,None,1316.1557389469817,None,1,0.568942223675549,1316.1557389469817,None,1316.1557389469817,None,1318.1554430862889,None,1318.1554430862889,None,2,0.818533512763679,1318.1554430862889,None,2,1.069260135293007,1320.155418900773,None,1320.155418900773,None,1320.155418900773,None,1322.1554074538872,None,1322.1554074538872,None,1,0.8688378389924765,1322.1554074538872,None,1324.1556081958115,None,1324.1556081958115,None,2,0.9019270427525043,1324.1556081958115,None,001,37,2020_Jan_14_1337,viewing,3.1.2,60.00081059686701,
north.png,stims/wedding-22.1a.mp4,stims/wedding-22.1b.mp4,stims/wedding-22.2a.mp4,stims/wedding-22.3a.mp4,stims/wedding-22.4a.mp4,stims/wedding-22.5.mp4,stimsday2details/newegg17.png,stimsday2details/egg22.png,stimsday2details/newperson34.png,stimsday2details/couple22.png,stimsday2details/new34.png,stimsday2details/gift22.png,stimsday2details/n22.png,stimsday2details/cn22.png,stimsday2details/t22.png,stimsday2details/ct22.png,0,9,9,9,0,0,0,0,,,,,,,,,,,,,,,,,,,,,,,,,None,None,,,,,,,,,,,,,,,,,,,,,,,,,,,,,,,,,,,,,,,,,,,,,,,,,,,,,,,,,,,,,,,,,,,,,,,,,,,,,,,,,,,,,,,,,,,,,001,37,2020_Jan_14_1337,viewing,3.1.2,60.00081059686701,
north.png,stims/wedding-22.1a.mp4,stims/wedding-22.1b.mp4,stims/wedding-22.2a.mp4,stims/wedding-22.3a.mp4,stims/wedding-22.4a.mp4,stims/wedding-22.5.mp4,stimsday2details/newegg17.png,stimsday2details/egg22.png,stimsday2details/newperson34.png,stimsday2details/couple22.png,stimsday2details/new34.png,stimsday2details/gift22.png,stimsday2details/n22.png,stimsday2details/cn22.png,stimsday2details/t22.png,stimsday2details/ct22.png,0,9,9,9,,,,,0,0,0,0,,,,,,,,,,,,,,,,,,,,,,,1326.5220916783437,None,,,,,,,,,,,,,,,,,,,,,,,,,,,,,,,,,,,,,,,,,,,,,,,,,,,,,,,,,,,,,,,,,,,,,,,,,,,,,,,,,,,,,,,,,,,001,37,2020_Jan_14_1337,viewing,3.1.2,60.00081059686701,
north.png,stims/wedding-22.1a.mp4,stims/wedding-22.1b.mp4,stims/wedding-22.2a.mp4,stims/wedding-22.3a.mp4,stims/wedding-22.4a.mp4,stims/wedding-22.5.mp4,stimsday2details/newegg17.png,stimsday2details/egg22.png,stimsday2details/newperson34.png,stimsday2details/couple22.png,stimsday2details/new34.png,stimsday2details/gift22.png,stimsday2details/n22.png,stimsday2details/cn22.png,stimsday2details/t22.png,stimsday2details/ct22.png,0,9,9,9,,,,,,,,,0,0,0,0,,,,,,,,,,,,,,,,,,,,,3.0795776769518852,None,1336.8400604603812,1361.7551588062197,1361.7551588062197,None,1370.7548522669822,None,1387.7547741020098,None,1410.7710050111637,1434.7541837580502,1434.7708492437378,None,,,,,,,,,,,,,,,,,,,,,,,,,,,,,,,,,,,,,,,,,,,,,,,,,,,,,,,,,,,,,,,,,,,,,,,,,,,,,001,37,2020_Jan_14_1337,viewing,3.1.2,60.00081059686701,
north.png,stims/wedding-22.1a.mp4,stims/wedding-22.1b.mp4,stims/wedding-22.2a.mp4,stims/wedding-22.3a.mp4,stims/wedding-22.4a.mp4,stims/wedding-22.5.mp4,stimsday2details/newegg17.png,stimsday2details/egg22.png,stimsday2details/newperson34.png,stimsday2details/couple22.png,stimsday2details/new34.png,stimsday2details/gift22.png,stimsday2details/n22.png,stimsday2details/cn22.png,stimsday2details/t22.png,stimsday2details/ct22.png,0,9,9,9,,,,,,,,,,,,,0,0,0,0,,,,,,,,,,,,,,,,,,,,,,,,,,,,,,,None,None,None,None,None,None,None,None,None,None,None,None,None,None,None,None,None,None,None,,None,None,None,,None,None,,,,,,,,,,,,,,,,,,,,,,,,,,,,,,,,,,,,,,,,,,,,,,,,,,,001,37,2020_Jan_14_1337,viewing,3.1.2,60.00081059686701,
north.png,stims/wedding-22.1a.mp4,stims/wedding-22.1b.mp4,stims/wedding-22.2a.mp4,stims/wedding-22.3a.mp4,stims/wedding-22.4a.mp4,stims/wedding-22.5.mp4,stimsday2details/newegg17.png,stimsday2details/egg22.png,stimsday2details/newperson34.png,stimsday2details/couple22.png,stimsday2details/new34.png,stimsday2details/gift22.png,stimsday2details/n22.png,stimsday2details/cn22.png,stimsday2details/t22.png,stimsday2details/ct22.png,0,9,9,9,,,,,,,,,,,,,,,,,,,,,,,,,,,,,,,,,,,,,,,,,,,,,,,,,,,,,,,,,,,,,,,,,,,,,,,,,3.318767994642258e-05,None,1,0.7357663884758949,1458.787093120627,None,1458.787093120627,None,1458.787093120627,None,1460.787055021152,None,2,0.9854621104896069,1460.787055021152,None,1460.787055021152,None,1462.7870171964169,None,1462.7870171964169,None,2,0.8020336758345366,1462.7870171964169,None,1,1.235313487239182,1464.7871078932658,None,1464.7871078932658,None,1464.7871078932658,None,1466.786892148666,None,1466.786892148666,None,2,0.9351648334413767,1466.786892148666,None,1468.7869395595044,None,1468.7869395595044,None,2,1.3856219239532948,1468.7869395595044,None,001,37,2020_Jan_14_1337,viewing,3.1.2,60.00081059686701,
north.png,stims/wedding-6.1a.mp4,stims/wedding-6.1b.mp4,stims/wedding-6.2a.mp4,stims/wedding-6.3a.mp4,stims/wedding-6.4a.mp4,stims/wedding-6.5.mp4,stimsday2details/newegg18.png,stimsday2details/egg6.png,stimsday2details/newperson35.png,stimsday2details/couple6.png,stimsday2details/new35.png,stimsday2details/gift6.png,stimsday2details/cn6.png,stimsday2details/n6.png,stimsday2details/t6.png,stimsday2details/ct6.png,0,10,10,10,0,0,0,0,,,,,,,,,,,,,,,,,,,,,,,,,None,None,,,,,,,,,,,,,,,,,,,,,,,,,,,,,,,,,,,,,,,,,,,,,,,,,,,,,,,,,,,,,,,,,,,,,,,,,,,,,,,,,,,,,,,,,,,,,001,37,2020_Jan_14_1337,viewing,3.1.2,60.00081059686701,
north.png,stims/wedding-6.1a.mp4,stims/wedding-6.1b.mp4,stims/wedding-6.2a.mp4,stims/wedding-6.3a.mp4,stims/wedding-6.4a.mp4,stims/wedding-6.5.mp4,stimsday2details/newegg18.png,stimsday2details/egg6.png,stimsday2details/newperson35.png,stimsday2details/couple6.png,stimsday2details/new35.png,stimsday2details/gift6.png,stimsday2details/cn6.png,stimsday2details/n6.png,stimsday2details/t6.png,stimsday2details/ct6.png,0,10,10,10,,,,,0,0,0,0,,,,,,,,,,,,,,,,,,,,,,,1471.0368563253433,None,,,,,,,,,,,,,,,,,,,,,,,,,,,,,,,,,,,,,,,,,,,,,,,,,,,,,,,,,,,,,,,,,,,,,,,,,,,,,,,,,,,,,,,,,,,001,37,2020_Jan_14_1337,viewing,3.1.2,60.00081059686701,
north.png,stims/wedding-6.1a.mp4,stims/wedding-6.1b.mp4,stims/wedding-6.2a.mp4,stims/wedding-6.3a.mp4,stims/wedding-6.4a.mp4,stims/wedding-6.5.mp4,stimsday2details/newegg18.png,stimsday2details/egg6.png,stimsday2details/newperson35.png,stimsday2details/couple6.png,stimsday2details/new35.png,stimsday2details/gift6.png,stimsday2details/cn6.png,stimsday2details/n6.png,stimsday2details/t6.png,stimsday2details/ct6.png,0,10,10,10,,,,,,,,,0,0,0,0,,,,,,,,,,,,,,,,,,,,,3.0321386959403753,None,1481.322471216321,1506.2864698143676,1506.3033422725275,None,1515.303184199147,1532.2863532993942,1532.3027631863952,1555.2857925230637,1555.3026842353866,1579.2855499237776,1579.3022186122835,None,,,,,,,,,,,,,,,,,,,,,,,,,,,,,,,,,,,,,,,,,,,,,,,,,,,,,,,,,,,,,,,,,,,,,,,,,,,,,001,37,2020_Jan_14_1337,viewing,3.1.2,60.00081059686701,
north.png,stims/wedding-6.1a.mp4,stims/wedding-6.1b.mp4,stims/wedding-6.2a.mp4,stims/wedding-6.3a.mp4,stims/wedding-6.4a.mp4,stims/wedding-6.5.mp4,stimsday2details/newegg18.png,stimsday2details/egg6.png,stimsday2details/newperson35.png,stimsday2details/couple6.png,stimsday2details/new35.png,stimsday2details/gift6.png,stimsday2details/cn6.png,stimsday2details/n6.png,stimsday2details/t6.png,stimsday2details/ct6.png,0,10,10,10,,,,,,,,,,,,,0,0,0,0,,,,,,,,,,,,,,,,,,,,,,,,,,,,,,,None,None,None,None,None,None,None,None,None,None,None,None,None,None,None,None,None,None,None,,None,None,None,,None,None,,,,,,,,,,,,,,,,,,,,,,,,,,,,,,,,,,,,,,,,,,,,,,,,,,,001,37,2020_Jan_14_1337,viewing,3.1.2,60.00081059686701,
north.png,stims/wedding-6.1a.mp4,stims/wedding-6.1b.mp4,stims/wedding-6.2a.mp4,stims/wedding-6.3a.mp4,stims/wedding-6.4a.mp4,stims/wedding-6.5.mp4,stimsday2details/newegg18.png,stimsday2details/egg6.png,stimsday2details/newperson35.png,stimsday2details/couple6.png,stimsday2details/new35.png,stimsday2details/gift6.png,stimsday2details/cn6.png,stimsday2details/n6.png,stimsday2details/t6.png,stimsday2details/ct6.png,0,10,10,10,,,,,,,,,,,,,,,,,,,,,,,,,,,,,,,,,,,,,,,,,,,,,,,,,,,,,,,,,,,,,,,,,,,,,,,,,2.805795520544052e-05,None,2,1.2986411917954683,1603.6388687640429,None,1603.6388687640429,None,1603.6388687640429,None,1605.6185614634305,None,2,0.8689840761944652,1605.6185614634305,None,1605.6185614634305,None,1607.6185310175642,None,1607.6185310175642,None,2,0.9852301403880119,1607.6185310175642,None,1,1.3855374716222286,1609.6186281749979,None,1609.6186281749979,None,1609.6186281749979,None,1611.618679217063,None,1611.618679217063,None,2,1.401660781353712,1611.618679217063,None,1613.6187025038525,None,1613.6187025038525,None,1,0.885030553676188,1613.6187025038525,None,001,37,2020_Jan_14_1337,viewing,3.1.2,60.00081059686701,
south.png,stims/wedding-23.1a.mp4,stims/wedding-23.1b.mp4,stims/wedding-23.2b.mp4,stims/wedding-23.3a.mp4,stims/wedding-23.4b.mp4,stims/wedding-23.5.mp4,stimsday2details/newpainting18.png,stimsday2details/painting23.png,stimsday2details/newperson36.png,stimsday2details/couple23.png,stimsday2details/gift23.png,stimsday2details/new36.png,stimsday2details/cn23.png,stimsday2details/n23.png,stimsday2details/t23.png,stimsday2details/ct23.png,0,11,11,11,0,0,0,0,,,,,,,,,,,,,,,,,,,,,,,,,1615.618572615087,None,,,,,,,,,,,,,,,,,,,,,,,,,,,,,,,,,,,,,,,,,,,,,,,,,,,,,,,,,,,,,,,,,,,,,,,,,,,,,,,,,,,,,,,,,,,,,001,37,2020_Jan_14_1337,viewing,3.1.2,60.00081059686701,
south.png,stims/wedding-23.1a.mp4,stims/wedding-23.1b.mp4,stims/wedding-23.2b.mp4,stims/wedding-23.3a.mp4,stims/wedding-23.4b.mp4,stims/wedding-23.5.mp4,stimsday2details/newpainting18.png,stimsday2details/painting23.png,stimsday2details/newperson36.png,stimsday2details/couple23.png,stimsday2details/gift23.png,stimsday2details/new36.png,stimsday2details/cn23.png,stimsday2details/n23.png,stimsday2details/t23.png,stimsday2details/ct23.png,0,11,11,11,,,,,0,0,0,0,,,,,,,,,,,,,,,,,,,,,,,None,None,,,,,,,,,,,,,,,,,,,,,,,,,,,,,,,,,,,,,,,,,,,,,,,,,,,,,,,,,,,,,,,,,,,,,,,,,,,,,,,,,,,,,,,,,,,001,37,2020_Jan_14_1337,viewing,3.1.2,60.00081059686701,
south.png,stims/wedding-23.1a.mp4,stims/wedding-23.1b.mp4,stims/wedding-23.2b.mp4,stims/wedding-23.3a.mp4,stims/wedding-23.4b.mp4,stims/wedding-23.5.mp4,stimsday2details/newpainting18.png,stimsday2details/painting23.png,stimsday2details/newperson36.png,stimsday2details/couple23.png,stimsday2details/gift23.png,stimsday2details/new36.png,stimsday2details/cn23.png,stimsday2details/n23.png,stimsday2details/t23.png,stimsday2details/ct23.png,0,11,11,11,,,,,,,,,0,0,0,0,,,,,,,,,,,,,,,,,,,,,None,None,None,None,None,None,None,None,None,None,None,None,None,None,,,,,,,,,,,,,,,,,,,,,,,,,,,,,,,,,,,,,,,,,,,,,,,,,,,,,,,,,,,,,,,,,,,,,,,,,,,,,001,37,2020_Jan_14_1337,viewing,3.1.2,60.00081059686701,
south.png,stims/wedding-23.1a.mp4,stims/wedding-23.1b.mp4,stims/wedding-23.2b.mp4,stims/wedding-23.3a.mp4,stims/wedding-23.4b.mp4,stims/wedding-23.5.mp4,stimsday2details/newpainting18.png,stimsday2details/painting23.png,stimsday2details/newperson36.png,stimsday2details/couple23.png,stimsday2details/gift23.png,stimsday2details/new36.png,stimsday2details/cn23.png,stimsday2details/n23.png,stimsday2details/t23.png,stimsday2details/ct23.png,0,11,11,11,,,,,,,,,,,,,0,0,0,0,,,,,,,,,,,,,,,,,,,,,,,,,,,,,,,2.9091647174209356,None,1629.3349323151633,1654.4346129866317,1654.4514237716794,None,1663.4511515740305,None,1680.4510551569983,1684.4341747649014,1684.4508234951645,1707.4339662641287,1707.450803023763,1711.4340603817254,1711.4507231153548,None,1735.4502514023334,None,['1'],[3.9358236230909824],1679.4509332897142,1684.4341747649014,['2'],[4.5023337956517935],1706.4506288021803,1711.4340603817254,,,,,,,,,,,,,,,,,,,,,,,,,,,,,,,,,,,,,,,,,,,,,,,,,,,001,37,2020_Jan_14_1337,viewing,3.1.2,60.00081059686701,
south.png,stims/wedding-23.1a.mp4,stims/wedding-23.1b.mp4,stims/wedding-23.2b.mp4,stims/wedding-23.3a.mp4,stims/wedding-23.4b.mp4,stims/wedding-23.5.mp4,stimsday2details/newpainting18.png,stimsday2details/painting23.png,stimsday2details/newperson36.png,stimsday2details/couple23.png,stimsday2details/gift23.png,stimsday2details/new36.png,stimsday2details/cn23.png,stimsday2details/n23.png,stimsday2details/t23.png,stimsday2details/ct23.png,0,11,11,11,,,,,,,,,,,,,,,,,,,,,,,,,,,,,,,,,,,,,,,,,,,,,,,,,,,,,,,,,,,,,,,,,,,,,,,,,3.729574382305145e-05,None,2,0.9167404416948557,1756.819020007737,None,1756.819020007737,None,1756.819020007737,None,1758.8000019248575,None,2,0.7358842613175511,1758.8000019248575,None,1758.8000019248575,None,1760.7999393930659,None,1760.7999393930659,None,2,1.1191505640745163,1760.7999393930659,None,1,0.9351659966632724,1762.800042568706,None,1762.800042568706,None,1762.800042568706,None,1764.799889310263,None,1764.799889310263,None,1,0.619024601764977,1764.799889310263,None,1766.7998685734347,None,1766.7998685734347,None,2,0.43578734807670116,1766.7998685734347,None,001,37,2020_Jan_14_1337,viewing,3.1.2,60.00081059686701,
