northOrSouth,stimFile1a,stimFile1b,stimFile2,stimFile3,stimFile4,stimFile5,Qeggpainting1,Qeggpainting2,Qcharacter1,Qcharacter2,Qgift1,Qgift2,Qname1,Qname2,Qtheme1,Qtheme2,trials.thisRepN,trials.thisTrialN,trials.thisN,trials.thisIndex,South.thisRepN,South.thisTrialN,South.thisN,South.thisIndex,North.thisRepN,North.thisTrialN,North.thisN,North.thisIndex,noQtrials.thisRepN,noQtrials.thisTrialN,noQtrials.thisN,noQtrials.thisIndex,Qtrials.thisRepN,Qtrials.thisTrialN,Qtrials.thisN,Qtrials.thisIndex,text.started,text.stopped,prep_trigger.keys,prep_trigger.rt,prep_trigger.started,prep_trigger.stopped,waiting.started,waiting.stopped,trigger.keys,trigger.rt,trigger.started,trigger.stopped,southCueImage.started,southCueImage.stopped,northCueImage.started,northCueImage.stopped,trialNoQs.started,trialNoQs.stopped,vid1a.started,vid1a.stopped,vid1b.started,vid1b.stopped,vid2.started,vid2.stopped,vid3.started,vid3.stopped,vid4.started,vid4.stopped,vid5.started,vid5.stopped,ISI2.started,ISI2.stopped,vid1a_q.started,vid1a_q.stopped,vid1b_q.started,vid1b_q.stopped,vid2_q.started,vid2_q.stopped,l2q.started,l2q.stopped,vid3_q.started,vid3_q.stopped,l3q.started,l3q.stopped,vid4_q.started,vid4_q.stopped,vid5_q.started,vid5_q.stopped,key_resp_2.keys,key_resp_2.rt,key_resp_2.started,key_resp_2.stopped,key_resp_3.keys,key_resp_3.rt,key_resp_3.started,key_resp_3.stopped,ISI7.started,ISI7.stopped,nameQresp.keys,nameQresp.rt,nameQresp.started,nameQresp.stopped,nameQ1.started,nameQ1.stopped,nameQ2.started,nameQ2.stopped,eggPainting1.started,eggPainting1.stopped,eggPaintingQresp.keys,eggPaintingQresp.rt,eggPaintingQresp.started,eggPaintingQresp.stopped,eggPainting2.started,eggPainting2.stopped,character1.started,character1.stopped,character2.started,character2.stopped,Qcharacter.keys,Qcharacter.rt,Qcharacter.started,Qcharacter.stopped,themeQresp.keys,themeQresp.rt,themeQresp.started,themeQresp.stopped,themeQ1.started,themeQ1.stopped,themeQ2.started,themeQ2.stopped,gift1.started,gift1.stopped,gift2.started,gift2.stopped,giftQresp.keys,giftQresp.rt,giftQresp.started,giftQresp.stopped,northorsouth1.started,northorsouth1.stopped,northorsouth2.started,northorsouth2.stopped,northOrSouthQ.keys,northOrSouthQ.rt,northOrSouthQ.started,northOrSouthQ.stopped,session,participant,date,expName,psychopyVersion,frameRate,
,,,,,,,,,,,,,,,,,,,,,,,,,,,,,,,,,,,,,9.585194605984725,None,g,0.537583188037388,9.585194605984725,None,,,,,,,,,,,,,,,,,,,,,,,,,,,,,,,,,,,,,,,,,,,,,,,,,,,,,,,,,,,,,,,,,,,,,,,,,,,,,,,,,,,,,,,,,,,,,,,,,,,,,001,25,2019_Nov_05_1143,viewing,3.1.2,60.000627741265944,
,,,,,,,,,,,,,,,,,,,,,,,,,,,,,,,,,,,,,,,,,,,10.135233307955787,None,equal,18.11880552303046,10.135233307955787,None,,,,,,,,,,,,,,,,,,,,,,,,,,,,,,,,,,,,,,,,,,,,,,,,,,,,,,,,,,,,,,,,,,,,,,,,,,,,,,,,,,,,,,,,,,,,,,,001,25,2019_Nov_05_1143,viewing,3.1.2,60.000627741265944,
south.png,stims/wedding-20.1a.mp4,stims/wedding-20.1b.mp4,stims/wedding-20.2a.mp4,stims/wedding-20.3b.mp4,stims/wedding-20.4a.mp4,stims/wedding-20.5.mp4,stimsday2details/egg20.png,stimsday2details/newegg13.png,stimsday2details/newperson25.png,stimsday2details/couple20.png,stimsday2details/new25.png,stimsday2details/gift20.png,stimsday2details/n20.png,stimsday2details/cn20.png,stimsday2details/ct20.png,stimsday2details/t20.png,0,0,0,0,0,0,0,0,,,,,,,,,,,,,,,,,,,,,,,,,28.301666514016688,None,,,,,,,,,,,,,,,,,,,,,,,,,,,,,,,,,,,,,,,,,,,,,,,,,,,,,,,,,,,,,,,,,,,,,,,,,,,,,,,,,,,,,,,,,,,,,001,25,2019_Nov_05_1143,viewing,3.1.2,60.000627741265944,
south.png,stims/wedding-20.1a.mp4,stims/wedding-20.1b.mp4,stims/wedding-20.2a.mp4,stims/wedding-20.3b.mp4,stims/wedding-20.4a.mp4,stims/wedding-20.5.mp4,stimsday2details/egg20.png,stimsday2details/newegg13.png,stimsday2details/newperson25.png,stimsday2details/couple20.png,stimsday2details/new25.png,stimsday2details/gift20.png,stimsday2details/n20.png,stimsday2details/cn20.png,stimsday2details/ct20.png,stimsday2details/t20.png,0,0,0,0,,,,,0,0,0,0,,,,,,,,,,,,,,,,,,,,,,,None,None,,,,,,,,,,,,,,,,,,,,,,,,,,,,,,,,,,,,,,,,,,,,,,,,,,,,,,,,,,,,,,,,,,,,,,,,,,,,,,,,,,,,,,,,,,,001,25,2019_Nov_05_1143,viewing,3.1.2,60.000627741265944,
south.png,stims/wedding-20.1a.mp4,stims/wedding-20.1b.mp4,stims/wedding-20.2a.mp4,stims/wedding-20.3b.mp4,stims/wedding-20.4a.mp4,stims/wedding-20.5.mp4,stimsday2details/egg20.png,stimsday2details/newegg13.png,stimsday2details/newperson25.png,stimsday2details/couple20.png,stimsday2details/new25.png,stimsday2details/gift20.png,stimsday2details/n20.png,stimsday2details/cn20.png,stimsday2details/ct20.png,stimsday2details/t20.png,0,0,0,0,,,,,,,,,0,0,0,0,,,,,,,,,,,,,,,,,,,,,None,None,None,None,None,None,None,None,None,None,None,None,None,None,,,,,,,,,,,,,,,,,,,,,,,,,,,,,,,,,,,,,,,,,,,,,,,,,,,,,,,,,,,,,,,,,,,,,,,,,,,,,001,25,2019_Nov_05_1143,viewing,3.1.2,60.000627741265944,
south.png,stims/wedding-20.1a.mp4,stims/wedding-20.1b.mp4,stims/wedding-20.2a.mp4,stims/wedding-20.3b.mp4,stims/wedding-20.4a.mp4,stims/wedding-20.5.mp4,stimsday2details/egg20.png,stimsday2details/newegg13.png,stimsday2details/newperson25.png,stimsday2details/couple20.png,stimsday2details/new25.png,stimsday2details/gift20.png,stimsday2details/n20.png,stimsday2details/cn20.png,stimsday2details/ct20.png,stimsday2details/t20.png,0,0,0,0,,,,,,,,,,,,,0,0,0,0,,,,,,,,,,,,,,,,,,,,,,,,,,,,,,,2.691477605025284,None,41.06883579399437,66.38453069794923,66.38453069794923,None,75.38438336900435,None,92.38424245303031,96.38409384596162,96.4008237660164,119.38386290799826,119.4005274339579,123.38381028093863,123.40047832101118,147.383507048944,147.40017004602123,None,['2'],[3.502047478919849],91.38422578701284,96.38409384596162,['1'],[1.7184792269254103],118.40054812293965,123.38381028093863,,,,,,,,,,,,,,,,,,,,,,,,,,,,,,,,,,,,,,,,,,,,,,,,,,,001,25,2019_Nov_05_1143,viewing,3.1.2,60.000627741265944,
south.png,stims/wedding-20.1a.mp4,stims/wedding-20.1b.mp4,stims/wedding-20.2a.mp4,stims/wedding-20.3b.mp4,stims/wedding-20.4a.mp4,stims/wedding-20.5.mp4,stimsday2details/egg20.png,stimsday2details/newegg13.png,stimsday2details/newperson25.png,stimsday2details/couple20.png,stimsday2details/new25.png,stimsday2details/gift20.png,stimsday2details/n20.png,stimsday2details/cn20.png,stimsday2details/ct20.png,stimsday2details/t20.png,0,0,0,0,,,,,,,,,,,,,,,,,,,,,,,,,,,,,,,,,,,,,,,,,,,,,,,,,,,,,,,,,,,,,,,,,,,,,,,,,2.5752000510692596e-05,None,1,0.935000458965078,167.06660271494184,None,167.06660271494184,None,167.06660271494184,None,169.06657193496358,None,1,0.6350979250855744,169.06657193496358,None,169.06657193496358,None,171.06654637900647,None,171.06654637900647,None,2,1.051891827955842,171.06654637900647,None,2,0.9020434600533918,173.06651612301357,None,173.06651612301357,None,173.06651612301357,None,175.06648855598178,None,175.06648855598178,None,2,0.6851369800278917,175.06648855598178,None,177.066476605949,None,177.066476605949,None,2,0.6022660300368443,177.066476605949,None,001,25,2019_Nov_05_1143,viewing,3.1.2,60.000627741265944,
north.png,stims/wedding-19.1a.mp4,stims/wedding-19.1b.mp4,stims/wedding-19.2a.mp4,stims/wedding-19.3a.mp4,stims/wedding-19.4a.mp4,stims/wedding-19.5.mp4,stimsday2details/egg19.png,stimsday2details/newegg14.png,stimsday2details/newperson26.png,stimsday2details/couple19.png,stimsday2details/gift19.png,stimsday2details/new26.png,stimsday2details/cn19.png,stimsday2details/n19.png,stimsday2details/ct19.png,stimsday2details/t19.png,0,1,1,1,0,0,0,0,,,,,,,,,,,,,,,,,,,,,,,,,None,None,,,,,,,,,,,,,,,,,,,,,,,,,,,,,,,,,,,,,,,,,,,,,,,,,,,,,,,,,,,,,,,,,,,,,,,,,,,,,,,,,,,,,,,,,,,,,001,25,2019_Nov_05_1143,viewing,3.1.2,60.000627741265944,
north.png,stims/wedding-19.1a.mp4,stims/wedding-19.1b.mp4,stims/wedding-19.2a.mp4,stims/wedding-19.3a.mp4,stims/wedding-19.4a.mp4,stims/wedding-19.5.mp4,stimsday2details/egg19.png,stimsday2details/newegg14.png,stimsday2details/newperson26.png,stimsday2details/couple19.png,stimsday2details/gift19.png,stimsday2details/new26.png,stimsday2details/cn19.png,stimsday2details/n19.png,stimsday2details/ct19.png,stimsday2details/t19.png,0,1,1,1,,,,,0,0,0,0,,,,,,,,,,,,,,,,,,,,,,,179.1164371969644,None,,,,,,,,,,,,,,,,,,,,,,,,,,,,,,,,,,,,,,,,,,,,,,,,,,,,,,,,,,,,,,,,,,,,,,,,,,,,,,,,,,,,,,,,,,,001,25,2019_Nov_05_1143,viewing,3.1.2,60.000627741265944,
north.png,stims/wedding-19.1a.mp4,stims/wedding-19.1b.mp4,stims/wedding-19.2a.mp4,stims/wedding-19.3a.mp4,stims/wedding-19.4a.mp4,stims/wedding-19.5.mp4,stimsday2details/egg19.png,stimsday2details/newegg14.png,stimsday2details/newperson26.png,stimsday2details/couple19.png,stimsday2details/gift19.png,stimsday2details/new26.png,stimsday2details/cn19.png,stimsday2details/n19.png,stimsday2details/ct19.png,stimsday2details/t19.png,0,1,1,1,,,,,,,,,0,0,0,0,,,,,,,,,,,,,,,,,,,,,2.943189356010407,None,189.11631790501997,214.16594125097618,214.18265911296476,None,223.18248631001916,240.16567306197248,240.18233194597997,263.16537078493275,263.18203837401234,None,287.18173127702903,None,,,,,,,,,,,,,,,,,,,,,,,,,,,,,,,,,,,,,,,,,,,,,,,,,,,,,,,,,,,,,,,,,,,,,,,,,,,,,001,25,2019_Nov_05_1143,viewing,3.1.2,60.000627741265944,
north.png,stims/wedding-19.1a.mp4,stims/wedding-19.1b.mp4,stims/wedding-19.2a.mp4,stims/wedding-19.3a.mp4,stims/wedding-19.4a.mp4,stims/wedding-19.5.mp4,stimsday2details/egg19.png,stimsday2details/newegg14.png,stimsday2details/newperson26.png,stimsday2details/couple19.png,stimsday2details/gift19.png,stimsday2details/new26.png,stimsday2details/cn19.png,stimsday2details/n19.png,stimsday2details/ct19.png,stimsday2details/t19.png,0,1,1,1,,,,,,,,,,,,,0,0,0,0,,,,,,,,,,,,,,,,,,,,,,,,,,,,,,,None,None,None,None,None,None,None,None,None,None,None,None,None,None,None,None,None,None,None,,None,None,None,,None,None,,,,,,,,,,,,,,,,,,,,,,,,,,,,,,,,,,,,,,,,,,,,,,,,,,,001,25,2019_Nov_05_1143,viewing,3.1.2,60.000627741265944,
north.png,stims/wedding-19.1a.mp4,stims/wedding-19.1b.mp4,stims/wedding-19.2a.mp4,stims/wedding-19.3a.mp4,stims/wedding-19.4a.mp4,stims/wedding-19.5.mp4,stimsday2details/egg19.png,stimsday2details/newegg14.png,stimsday2details/newperson26.png,stimsday2details/couple19.png,stimsday2details/gift19.png,stimsday2details/new26.png,stimsday2details/cn19.png,stimsday2details/n19.png,stimsday2details/ct19.png,stimsday2details/t19.png,0,1,1,1,,,,,,,,,,,,,,,,,,,,,,,,,,,,,,,,,,,,,,,,,,,,,,,,,,,,,,,,,,,,,,,,,,,,,,,,,3.491796087473631e-05,None,2,0.9184098999248818,311.13149016699754,None,311.13149016699754,None,311.13149016699754,None,313.1314038110431,None,1,0.8522941010305658,313.1314038110431,None,313.1314038110431,None,315.131339382031,None,315.131339382031,None,2,1.1518277529394254,315.131339382031,None,2,0.9350616129813716,317.1312936269678,None,317.1312936269678,None,317.1312936269678,None,319.13127242203336,None,319.13127242203336,None,1,0.5184754909714684,319.13127242203336,None,321.13126371998806,None,321.13126371998806,None,1,0.9523277539992705,321.13126371998806,None,001,25,2019_Nov_05_1143,viewing,3.1.2,60.000627741265944,
north.png,stims/wedding-28.1a.mp4,stims/wedding-28.1b.mp4,stims/wedding-28.2b.mp4,stims/wedding-28.3b.mp4,stims/wedding-28.4b.mp4,stims/wedding-28.5.mp4,stimsday2details/newpainting13.png,stimsday2details/painting28.png,stimsday2details/couple28.png,stimsday2details/newperson27.png,stimsday2details/new27.png,stimsday2details/gift28.png,stimsday2details/n28.png,stimsday2details/cn28.png,stimsday2details/ct28.png,stimsday2details/t28.png,0,2,2,2,0,0,0,0,,,,,,,,,,,,,,,,,,,,,,,,,None,None,,,,,,,,,,,,,,,,,,,,,,,,,,,,,,,,,,,,,,,,,,,,,,,,,,,,,,,,,,,,,,,,,,,,,,,,,,,,,,,,,,,,,,,,,,,,,001,25,2019_Nov_05_1143,viewing,3.1.2,60.000627741265944,
north.png,stims/wedding-28.1a.mp4,stims/wedding-28.1b.mp4,stims/wedding-28.2b.mp4,stims/wedding-28.3b.mp4,stims/wedding-28.4b.mp4,stims/wedding-28.5.mp4,stimsday2details/newpainting13.png,stimsday2details/painting28.png,stimsday2details/couple28.png,stimsday2details/newperson27.png,stimsday2details/new27.png,stimsday2details/gift28.png,stimsday2details/n28.png,stimsday2details/cn28.png,stimsday2details/ct28.png,stimsday2details/t28.png,0,2,2,2,,,,,0,0,0,0,,,,,,,,,,,,,,,,,,,,,,,323.19794300198555,None,,,,,,,,,,,,,,,,,,,,,,,,,,,,,,,,,,,,,,,,,,,,,,,,,,,,,,,,,,,,,,,,,,,,,,,,,,,,,,,,,,,,,,,,,,,001,25,2019_Nov_05_1143,viewing,3.1.2,60.000627741265944,
north.png,stims/wedding-28.1a.mp4,stims/wedding-28.1b.mp4,stims/wedding-28.2b.mp4,stims/wedding-28.3b.mp4,stims/wedding-28.4b.mp4,stims/wedding-28.5.mp4,stimsday2details/newpainting13.png,stimsday2details/painting28.png,stimsday2details/couple28.png,stimsday2details/newperson27.png,stimsday2details/new27.png,stimsday2details/gift28.png,stimsday2details/n28.png,stimsday2details/cn28.png,stimsday2details/ct28.png,stimsday2details/t28.png,0,2,2,2,,,,,,,,,0,0,0,0,,,,,,,,,,,,,,,,,,,,,2.7633961300598457,None,333.0311609469354,358.2808378729969,358.2808378729969,None,367.2807140829973,None,384.2804999309592,407.28020022797864,407.28020022797864,None,431.27989938796964,None,,,,,,,,,,,,,,,,,,,,,,,,,,,,,,,,,,,,,,,,,,,,,,,,,,,,,,,,,,,,,,,,,,,,,,,,,,,,,001,25,2019_Nov_05_1143,viewing,3.1.2,60.000627741265944,
north.png,stims/wedding-28.1a.mp4,stims/wedding-28.1b.mp4,stims/wedding-28.2b.mp4,stims/wedding-28.3b.mp4,stims/wedding-28.4b.mp4,stims/wedding-28.5.mp4,stimsday2details/newpainting13.png,stimsday2details/painting28.png,stimsday2details/couple28.png,stimsday2details/newperson27.png,stimsday2details/new27.png,stimsday2details/gift28.png,stimsday2details/n28.png,stimsday2details/cn28.png,stimsday2details/ct28.png,stimsday2details/t28.png,0,2,2,2,,,,,,,,,,,,,0,0,0,0,,,,,,,,,,,,,,,,,,,,,,,,,,,,,,,None,None,None,None,None,None,None,None,None,None,None,None,None,None,None,None,None,None,None,,None,None,None,,None,None,,,,,,,,,,,,,,,,,,,,,,,,,,,,,,,,,,,,,,,,,,,,,,,,,,,001,25,2019_Nov_05_1143,viewing,3.1.2,60.000627741265944,
north.png,stims/wedding-28.1a.mp4,stims/wedding-28.1b.mp4,stims/wedding-28.2b.mp4,stims/wedding-28.3b.mp4,stims/wedding-28.4b.mp4,stims/wedding-28.5.mp4,stimsday2details/newpainting13.png,stimsday2details/painting28.png,stimsday2details/couple28.png,stimsday2details/newperson27.png,stimsday2details/new27.png,stimsday2details/gift28.png,stimsday2details/n28.png,stimsday2details/cn28.png,stimsday2details/ct28.png,stimsday2details/t28.png,0,2,2,2,,,,,,,,,,,,,,,,,,,,,,,,,,,,,,,,,,,,,,,,,,,,,,,,,,,,,,,,,,,,,,,,,,,,,,,,,3.943301271647215e-05,None,1,0.5850404070224613,455.27962052996736,None,455.27962052996736,None,455.27962052996736,None,457.27953163697384,None,2,0.6851125130197033,457.27953163697384,None,457.27953163697384,None,459.2795445059892,None,459.2795445059892,None,1,0.8020648220553994,459.2795445059892,None,2,1.035325358971022,461.2795261979336,None,461.2795261979336,None,461.2795261979336,None,463.27949393203016,None,463.27949393203016,None,2,0.6357392389327288,463.27949393203016,None,465.2795200520195,None,465.2795200520195,None,1,0.7520985930459574,465.2795200520195,None,001,25,2019_Nov_05_1143,viewing,3.1.2,60.000627741265944,
south.png,stims/wedding-17.1a.mp4,stims/wedding-17.1b.mp4,stims/wedding-17.2b.mp4,stims/wedding-17.3a.mp4,stims/wedding-17.4b.mp4,stims/wedding-17.5.mp4,stimsday2details/newpainting14.png,stimsday2details/painting17.png,stimsday2details/newperson28.png,stimsday2details/couple17.png,stimsday2details/gift17.png,stimsday2details/new28.png,stimsday2details/cn17.png,stimsday2details/n17.png,stimsday2details/t17.png,stimsday2details/ct17.png,0,3,3,3,0,0,0,0,,,,,,,,,,,,,,,,,,,,,,,,,467.27955258393195,None,,,,,,,,,,,,,,,,,,,,,,,,,,,,,,,,,,,,,,,,,,,,,,,,,,,,,,,,,,,,,,,,,,,,,,,,,,,,,,,,,,,,,,,,,,,,,001,25,2019_Nov_05_1143,viewing,3.1.2,60.000627741265944,
south.png,stims/wedding-17.1a.mp4,stims/wedding-17.1b.mp4,stims/wedding-17.2b.mp4,stims/wedding-17.3a.mp4,stims/wedding-17.4b.mp4,stims/wedding-17.5.mp4,stimsday2details/newpainting14.png,stimsday2details/painting17.png,stimsday2details/newperson28.png,stimsday2details/couple17.png,stimsday2details/gift17.png,stimsday2details/new28.png,stimsday2details/cn17.png,stimsday2details/n17.png,stimsday2details/t17.png,stimsday2details/ct17.png,0,3,3,3,,,,,0,0,0,0,,,,,,,,,,,,,,,,,,,,,,,None,None,,,,,,,,,,,,,,,,,,,,,,,,,,,,,,,,,,,,,,,,,,,,,,,,,,,,,,,,,,,,,,,,,,,,,,,,,,,,,,,,,,,,,,,,,,,001,25,2019_Nov_05_1143,viewing,3.1.2,60.000627741265944,
south.png,stims/wedding-17.1a.mp4,stims/wedding-17.1b.mp4,stims/wedding-17.2b.mp4,stims/wedding-17.3a.mp4,stims/wedding-17.4b.mp4,stims/wedding-17.5.mp4,stimsday2details/newpainting14.png,stimsday2details/painting17.png,stimsday2details/newperson28.png,stimsday2details/couple17.png,stimsday2details/gift17.png,stimsday2details/new28.png,stimsday2details/cn17.png,stimsday2details/n17.png,stimsday2details/t17.png,stimsday2details/ct17.png,0,3,3,3,,,,,,,,,0,0,0,0,,,,,,,,,,,,,,,,,,,,,2.831225269008428,None,477.2963597129565,None,502.47899417602457,None,511.47903815994505,None,528.4786578189814,None,551.47837385803,None,575.478064698982,None,,,,,,,,,,,,,,,,,,,,,,,,,,,,,,,,,,,,,,,,,,,,,,,,,,,,,,,,,,,,,,,,,,,,,,,,,,,,,001,25,2019_Nov_05_1143,viewing,3.1.2,60.000627741265944,
south.png,stims/wedding-17.1a.mp4,stims/wedding-17.1b.mp4,stims/wedding-17.2b.mp4,stims/wedding-17.3a.mp4,stims/wedding-17.4b.mp4,stims/wedding-17.5.mp4,stimsday2details/newpainting14.png,stimsday2details/painting17.png,stimsday2details/newperson28.png,stimsday2details/couple17.png,stimsday2details/gift17.png,stimsday2details/new28.png,stimsday2details/cn17.png,stimsday2details/n17.png,stimsday2details/t17.png,stimsday2details/ct17.png,0,3,3,3,,,,,,,,,,,,,0,0,0,0,,,,,,,,,,,,,,,,,,,,,,,,,,,,,,,None,None,None,None,None,None,None,None,None,None,None,None,None,None,None,None,None,None,None,,None,None,None,,None,None,,,,,,,,,,,,,,,,,,,,,,,,,,,,,,,,,,,,,,,,,,,,,,,,,,,001,25,2019_Nov_05_1143,viewing,3.1.2,60.000627741265944,
south.png,stims/wedding-17.1a.mp4,stims/wedding-17.1b.mp4,stims/wedding-17.2b.mp4,stims/wedding-17.3a.mp4,stims/wedding-17.4b.mp4,stims/wedding-17.5.mp4,stimsday2details/newpainting14.png,stimsday2details/painting17.png,stimsday2details/newperson28.png,stimsday2details/couple17.png,stimsday2details/gift17.png,stimsday2details/new28.png,stimsday2details/cn17.png,stimsday2details/n17.png,stimsday2details/t17.png,stimsday2details/ct17.png,0,3,3,3,,,,,,,,,,,,,,,,,,,,,,,,,,,,,,,,,,,,,,,,,,,,,,,,,,,,,,,,,,,,,,,,,,,,,,,,,3.486697096377611e-05,None,2,1.6685724309645593,599.011170497979,None,599.011170497979,None,599.011170497979,None,601.0110839609988,None,2,0.6852466160198674,601.0110839609988,None,601.0110839609988,None,603.0110465670004,None,603.0110465670004,None,2,0.7350900610908866,603.0110465670004,None,1,1.0017553640063852,605.0110173840076,None,605.0110173840076,None,605.0110173840076,None,607.0109992669895,None,607.0109992669895,None,1,0.635226487996988,607.0109992669895,None,609.0109155799728,None,609.0109155799728,None,2,0.6190281009767205,609.0109155799728,None,001,25,2019_Nov_05_1143,viewing,3.1.2,60.000627741265944,
south.png,stims/wedding-2.1a.mp4,stims/wedding-2.1b.mp4,stims/wedding-2.2a.mp4,stims/wedding-2.3b.mp4,stims/wedding-2.4a.mp4,stims/wedding-2.5.mp4,stimsday2details/egg2.png,stimsday2details/newegg15.png,stimsday2details/newperson29.png,stimsday2details/couple2.png,stimsday2details/new29.png,stimsday2details/gift2.png,stimsday2details/cn2.png,stimsday2details/n2.png,stimsday2details/t2.png,stimsday2details/ct2.png,0,4,4,4,0,0,0,0,,,,,,,,,,,,,,,,,,,,,,,,,611.0109460130334,None,,,,,,,,,,,,,,,,,,,,,,,,,,,,,,,,,,,,,,,,,,,,,,,,,,,,,,,,,,,,,,,,,,,,,,,,,,,,,,,,,,,,,,,,,,,,,001,25,2019_Nov_05_1143,viewing,3.1.2,60.000627741265944,
south.png,stims/wedding-2.1a.mp4,stims/wedding-2.1b.mp4,stims/wedding-2.2a.mp4,stims/wedding-2.3b.mp4,stims/wedding-2.4a.mp4,stims/wedding-2.5.mp4,stimsday2details/egg2.png,stimsday2details/newegg15.png,stimsday2details/newperson29.png,stimsday2details/couple2.png,stimsday2details/new29.png,stimsday2details/gift2.png,stimsday2details/cn2.png,stimsday2details/n2.png,stimsday2details/t2.png,stimsday2details/ct2.png,0,4,4,4,,,,,0,0,0,0,,,,,,,,,,,,,,,,,,,,,,,None,None,,,,,,,,,,,,,,,,,,,,,,,,,,,,,,,,,,,,,,,,,,,,,,,,,,,,,,,,,,,,,,,,,,,,,,,,,,,,,,,,,,,,,,,,,,,001,25,2019_Nov_05_1143,viewing,3.1.2,60.000627741265944,
south.png,stims/wedding-2.1a.mp4,stims/wedding-2.1b.mp4,stims/wedding-2.2a.mp4,stims/wedding-2.3b.mp4,stims/wedding-2.4a.mp4,stims/wedding-2.5.mp4,stimsday2details/egg2.png,stimsday2details/newegg15.png,stimsday2details/newperson29.png,stimsday2details/couple2.png,stimsday2details/new29.png,stimsday2details/gift2.png,stimsday2details/cn2.png,stimsday2details/n2.png,stimsday2details/t2.png,stimsday2details/ct2.png,0,4,4,4,,,,,,,,,0,0,0,0,,,,,,,,,,,,,,,,,,,,,2.735027797985822,None,620.9774736859836,None,646.2438342820387,None,655.2437222510343,None,672.2435172379483,695.2432154719718,695.2432154719718,None,719.2429126489442,None,,,,,,,,,,,,,,,,,,,,,,,,,,,,,,,,,,,,,,,,,,,,,,,,,,,,,,,,,,,,,,,,,,,,,,,,,,,,,001,25,2019_Nov_05_1143,viewing,3.1.2,60.000627741265944,
south.png,stims/wedding-2.1a.mp4,stims/wedding-2.1b.mp4,stims/wedding-2.2a.mp4,stims/wedding-2.3b.mp4,stims/wedding-2.4a.mp4,stims/wedding-2.5.mp4,stimsday2details/egg2.png,stimsday2details/newegg15.png,stimsday2details/newperson29.png,stimsday2details/couple2.png,stimsday2details/new29.png,stimsday2details/gift2.png,stimsday2details/cn2.png,stimsday2details/n2.png,stimsday2details/t2.png,stimsday2details/ct2.png,0,4,4,4,,,,,,,,,,,,,0,0,0,0,,,,,,,,,,,,,,,,,,,,,,,,,,,,,,,None,None,None,None,None,None,None,None,None,None,None,None,None,None,None,None,None,None,None,,None,None,None,,None,None,,,,,,,,,,,,,,,,,,,,,,,,,,,,,,,,,,,,,,,,,,,,,,,,,,,001,25,2019_Nov_05_1143,viewing,3.1.2,60.000627741265944,
south.png,stims/wedding-2.1a.mp4,stims/wedding-2.1b.mp4,stims/wedding-2.2a.mp4,stims/wedding-2.3b.mp4,stims/wedding-2.4a.mp4,stims/wedding-2.5.mp4,stimsday2details/egg2.png,stimsday2details/newegg15.png,stimsday2details/newperson29.png,stimsday2details/couple2.png,stimsday2details/new29.png,stimsday2details/gift2.png,stimsday2details/cn2.png,stimsday2details/n2.png,stimsday2details/t2.png,stimsday2details/ct2.png,0,4,4,4,,,,,,,,,,,,,,,,,,,,,,,,,,,,,,,,,,,,,,,,,,,,,,,,,,,,,,,,,,,,,,,,,,,,,,,,,3.641704097390175e-05,None,2,0.9669688650174066,742.9259420930175,None,742.9259420930175,None,742.9259420930175,None,744.9092498229584,None,1,0.6020052450476214,744.9092498229584,None,744.9092498229584,None,746.9092216970166,None,746.9092216970166,None,2,0.9019173530396074,746.9092216970166,None,1,0.8035946110030636,748.9091966820415,None,748.9091966820415,None,748.9091966820415,None,750.9091739680152,None,750.9091739680152,None,2,0.9354618740035221,750.9091739680152,None,752.909147797036,None,752.909147797036,None,2,1.535277485032566,752.909147797036,None,001,25,2019_Nov_05_1143,viewing,3.1.2,60.000627741265944,
north.png,stims/wedding-6.1a.mp4,stims/wedding-6.1b.mp4,stims/wedding-6.2a.mp4,stims/wedding-6.3a.mp4,stims/wedding-6.4a.mp4,stims/wedding-6.5.mp4,stimsday2details/egg6.png,stimsday2details/newegg16.png,stimsday2details/couple6.png,stimsday2details/newperson30.png,stimsday2details/new30.png,stimsday2details/gift6.png,stimsday2details/n6.png,stimsday2details/cn6.png,stimsday2details/t6.png,stimsday2details/ct6.png,0,5,5,5,0,0,0,0,,,,,,,,,,,,,,,,,,,,,,,,,None,None,,,,,,,,,,,,,,,,,,,,,,,,,,,,,,,,,,,,,,,,,,,,,,,,,,,,,,,,,,,,,,,,,,,,,,,,,,,,,,,,,,,,,,,,,,,,,001,25,2019_Nov_05_1143,viewing,3.1.2,60.000627741265944,
north.png,stims/wedding-6.1a.mp4,stims/wedding-6.1b.mp4,stims/wedding-6.2a.mp4,stims/wedding-6.3a.mp4,stims/wedding-6.4a.mp4,stims/wedding-6.5.mp4,stimsday2details/egg6.png,stimsday2details/newegg16.png,stimsday2details/couple6.png,stimsday2details/newperson30.png,stimsday2details/new30.png,stimsday2details/gift6.png,stimsday2details/n6.png,stimsday2details/cn6.png,stimsday2details/t6.png,stimsday2details/ct6.png,0,5,5,5,,,,,0,0,0,0,,,,,,,,,,,,,,,,,,,,,,,755.0424653509399,None,,,,,,,,,,,,,,,,,,,,,,,,,,,,,,,,,,,,,,,,,,,,,,,,,,,,,,,,,,,,,,,,,,,,,,,,,,,,,,,,,,,,,,,,,,,001,25,2019_Nov_05_1143,viewing,3.1.2,60.000627741265944,
north.png,stims/wedding-6.1a.mp4,stims/wedding-6.1b.mp4,stims/wedding-6.2a.mp4,stims/wedding-6.3a.mp4,stims/wedding-6.4a.mp4,stims/wedding-6.5.mp4,stimsday2details/egg6.png,stimsday2details/newegg16.png,stimsday2details/couple6.png,stimsday2details/newperson30.png,stimsday2details/new30.png,stimsday2details/gift6.png,stimsday2details/n6.png,stimsday2details/cn6.png,stimsday2details/t6.png,stimsday2details/ct6.png,0,5,5,5,,,,,,,,,0,0,0,0,,,,,,,,,,,,,,,,,,,,,2.901425331016071,None,765.0757202119567,790.1753389049554,790.1920115379617,None,799.1918879989535,816.1750091459835,816.1916765349451,839.1747151300078,839.1913845479721,863.174406053964,863.1910247729393,None,,,,,,,,,,,,,,,,,,,,,,,,,,,,,,,,,,,,,,,,,,,,,,,,,,,,,,,,,,,,,,,,,,,,,,,,,,,,,001,25,2019_Nov_05_1143,viewing,3.1.2,60.000627741265944,
north.png,stims/wedding-6.1a.mp4,stims/wedding-6.1b.mp4,stims/wedding-6.2a.mp4,stims/wedding-6.3a.mp4,stims/wedding-6.4a.mp4,stims/wedding-6.5.mp4,stimsday2details/egg6.png,stimsday2details/newegg16.png,stimsday2details/couple6.png,stimsday2details/newperson30.png,stimsday2details/new30.png,stimsday2details/gift6.png,stimsday2details/n6.png,stimsday2details/cn6.png,stimsday2details/t6.png,stimsday2details/ct6.png,0,5,5,5,,,,,,,,,,,,,0,0,0,0,,,,,,,,,,,,,,,,,,,,,,,,,,,,,,,None,None,None,None,None,None,None,None,None,None,None,None,None,None,None,None,None,None,None,,None,None,None,,None,None,,,,,,,,,,,,,,,,,,,,,,,,,,,,,,,,,,,,,,,,,,,,,,,,,,,001,25,2019_Nov_05_1143,viewing,3.1.2,60.000627741265944,
north.png,stims/wedding-6.1a.mp4,stims/wedding-6.1b.mp4,stims/wedding-6.2a.mp4,stims/wedding-6.3a.mp4,stims/wedding-6.4a.mp4,stims/wedding-6.5.mp4,stimsday2details/egg6.png,stimsday2details/newegg16.png,stimsday2details/couple6.png,stimsday2details/newperson30.png,stimsday2details/new30.png,stimsday2details/gift6.png,stimsday2details/n6.png,stimsday2details/cn6.png,stimsday2details/t6.png,stimsday2details/ct6.png,0,5,5,5,,,,,,,,,,,,,,,,,,,,,,,,,,,,,,,,,,,,,,,,,,,,,,,,,,,,,,,,,,,,,,,,,,,,,,,,,3.423995804041624e-05,None,1,0.5972630239557475,887.0788321229629,None,887.0788321229629,None,887.0788321229629,None,889.0574143709382,None,1,0.6350856960052624,889.0574143709382,None,889.0574143709382,None,891.0574098690413,None,891.0574098690413,None,1,0.7683889570180327,891.0574098690413,None,1,0.9518247270025313,893.0573057639413,None,893.0573057639413,None,893.0573057639413,None,895.0572959219571,None,895.0572959219571,None,2,0.7190686500398442,895.0572959219571,None,897.0572500569979,None,897.0572500569979,None,1,1.3517321270192042,897.0572500569979,None,001,25,2019_Nov_05_1143,viewing,3.1.2,60.000627741265944,
north.png,stims/wedding-38.1a.mp4,stims/wedding-38.1b.mp4,stims/wedding-38.2b.mp4,stims/wedding-38.3b.mp4,stims/wedding-38.4b.mp4,stims/wedding-38.5.mp4,stimsday2details/painting38.png,stimsday2details/newpainting15.png,stimsday2details/couple38.png,stimsday2details/newperson31.png,stimsday2details/new31.png,stimsday2details/gift38.png,stimsday2details/n38.png,stimsday2details/cn38.png,stimsday2details/t38.png,stimsday2details/ct38.png,0,6,6,6,0,0,0,0,,,,,,,,,,,,,,,,,,,,,,,,,None,None,,,,,,,,,,,,,,,,,,,,,,,,,,,,,,,,,,,,,,,,,,,,,,,,,,,,,,,,,,,,,,,,,,,,,,,,,,,,,,,,,,,,,,,,,,,,,001,25,2019_Nov_05_1143,viewing,3.1.2,60.000627741265944,
north.png,stims/wedding-38.1a.mp4,stims/wedding-38.1b.mp4,stims/wedding-38.2b.mp4,stims/wedding-38.3b.mp4,stims/wedding-38.4b.mp4,stims/wedding-38.5.mp4,stimsday2details/painting38.png,stimsday2details/newpainting15.png,stimsday2details/couple38.png,stimsday2details/newperson31.png,stimsday2details/new31.png,stimsday2details/gift38.png,stimsday2details/n38.png,stimsday2details/cn38.png,stimsday2details/t38.png,stimsday2details/ct38.png,0,6,6,6,,,,,0,0,0,0,,,,,,,,,,,,,,,,,,,,,,,899.2072141609387,None,,,,,,,,,,,,,,,,,,,,,,,,,,,,,,,,,,,,,,,,,,,,,,,,,,,,,,,,,,,,,,,,,,,,,,,,,,,,,,,,,,,,,,,,,,,001,25,2019_Nov_05_1143,viewing,3.1.2,60.000627741265944,
north.png,stims/wedding-38.1a.mp4,stims/wedding-38.1b.mp4,stims/wedding-38.2b.mp4,stims/wedding-38.3b.mp4,stims/wedding-38.4b.mp4,stims/wedding-38.5.mp4,stimsday2details/painting38.png,stimsday2details/newpainting15.png,stimsday2details/couple38.png,stimsday2details/newperson31.png,stimsday2details/new31.png,stimsday2details/gift38.png,stimsday2details/n38.png,stimsday2details/cn38.png,stimsday2details/t38.png,stimsday2details/ct38.png,0,6,6,6,,,,,,,,,0,0,0,0,,,,,,,,,,,,,,,,,,,,,3.1617051389766857,None,909.5404944269685,934.3901642910205,934.4068333610194,None,943.4067213429371,None,960.4065007999307,983.3895417669555,983.4062148870435,None,1007.4059024719754,None,,,,,,,,,,,,,,,,,,,,,,,,,,,,,,,,,,,,,,,,,,,,,,,,,,,,,,,,,,,,,,,,,,,,,,,,,,,,,001,25,2019_Nov_05_1143,viewing,3.1.2,60.000627741265944,
north.png,stims/wedding-38.1a.mp4,stims/wedding-38.1b.mp4,stims/wedding-38.2b.mp4,stims/wedding-38.3b.mp4,stims/wedding-38.4b.mp4,stims/wedding-38.5.mp4,stimsday2details/painting38.png,stimsday2details/newpainting15.png,stimsday2details/couple38.png,stimsday2details/newperson31.png,stimsday2details/new31.png,stimsday2details/gift38.png,stimsday2details/n38.png,stimsday2details/cn38.png,stimsday2details/t38.png,stimsday2details/ct38.png,0,6,6,6,,,,,,,,,,,,,0,0,0,0,,,,,,,,,,,,,,,,,,,,,,,,,,,,,,,None,None,None,None,None,None,None,None,None,None,None,None,None,None,None,None,None,None,None,,None,None,None,,None,None,,,,,,,,,,,,,,,,,,,,,,,,,,,,,,,,,,,,,,,,,,,,,,,,,,,001,25,2019_Nov_05_1143,viewing,3.1.2,60.000627741265944,
north.png,stims/wedding-38.1a.mp4,stims/wedding-38.1b.mp4,stims/wedding-38.2b.mp4,stims/wedding-38.3b.mp4,stims/wedding-38.4b.mp4,stims/wedding-38.5.mp4,stimsday2details/painting38.png,stimsday2details/newpainting15.png,stimsday2details/couple38.png,stimsday2details/newperson31.png,stimsday2details/new31.png,stimsday2details/gift38.png,stimsday2details/n38.png,stimsday2details/cn38.png,stimsday2details/t38.png,stimsday2details/ct38.png,0,6,6,6,,,,,,,,,,,,,,,,,,,,,,,,,,,,,,,,,,,,,,,,,,,,,,,,,,,,,,,,,,,,,,,,,,,,,,,,,3.244401887059212e-05,None,1,1.0350259280530736,1031.238997753011,None,1031.238997753011,None,1031.238997753011,None,1033.2389162239851,None,1,0.6853778819786385,1033.2389162239851,None,1033.2389162239851,None,1035.2388869050192,None,1035.2388869050192,None,1,1.1184129919856787,1035.2388869050192,None,1,0.7017654000082985,1037.2388585869921,None,1037.2388585869921,None,1037.2388585869921,None,1039.2388343389612,None,1039.2388343389612,None,2,0.6689839439932257,1039.2388343389612,None,1041.2388099679956,None,1041.2388099679956,None,1,1.1350148339988664,1041.2388099679956,None,001,25,2019_Nov_05_1143,viewing,3.1.2,60.000627741265944,
south.png,stims/wedding-34.1a.mp4,stims/wedding-34.1b.mp4,stims/wedding-34.2b.mp4,stims/wedding-34.3a.mp4,stims/wedding-34.4b.mp4,stims/wedding-34.5.mp4,stimsday2details/painting34.png,stimsday2details/newpainting16.png,stimsday2details/couple34.png,stimsday2details/newperson32.png,stimsday2details/new32.png,stimsday2details/gift34.png,stimsday2details/n34.png,stimsday2details/cn34.png,stimsday2details/ct34.png,stimsday2details/t34.png,0,7,7,7,0,0,0,0,,,,,,,,,,,,,,,,,,,,,,,,,1043.238783866982,None,,,,,,,,,,,,,,,,,,,,,,,,,,,,,,,,,,,,,,,,,,,,,,,,,,,,,,,,,,,,,,,,,,,,,,,,,,,,,,,,,,,,,,,,,,,,,001,25,2019_Nov_05_1143,viewing,3.1.2,60.000627741265944,
south.png,stims/wedding-34.1a.mp4,stims/wedding-34.1b.mp4,stims/wedding-34.2b.mp4,stims/wedding-34.3a.mp4,stims/wedding-34.4b.mp4,stims/wedding-34.5.mp4,stimsday2details/painting34.png,stimsday2details/newpainting16.png,stimsday2details/couple34.png,stimsday2details/newperson32.png,stimsday2details/new32.png,stimsday2details/gift34.png,stimsday2details/n34.png,stimsday2details/cn34.png,stimsday2details/ct34.png,stimsday2details/t34.png,0,7,7,7,,,,,0,0,0,0,,,,,,,,,,,,,,,,,,,,,,,None,None,,,,,,,,,,,,,,,,,,,,,,,,,,,,,,,,,,,,,,,,,,,,,,,,,,,,,,,,,,,,,,,,,,,,,,,,,,,,,,,,,,,,,,,,,,,001,25,2019_Nov_05_1143,viewing,3.1.2,60.000627741265944,
south.png,stims/wedding-34.1a.mp4,stims/wedding-34.1b.mp4,stims/wedding-34.2b.mp4,stims/wedding-34.3a.mp4,stims/wedding-34.4b.mp4,stims/wedding-34.5.mp4,stimsday2details/painting34.png,stimsday2details/newpainting16.png,stimsday2details/couple34.png,stimsday2details/newperson32.png,stimsday2details/new32.png,stimsday2details/gift34.png,stimsday2details/n34.png,stimsday2details/cn34.png,stimsday2details/ct34.png,stimsday2details/t34.png,0,7,7,7,,,,,,,,,0,0,0,0,,,,,,,,,,,,,,,,,,,,,2.78915218799375,None,1053.3886613319628,1078.5882830460323,1078.6050005289726,1087.5882144740317,1087.6049125490244,None,1104.6046746480279,None,1127.6044136020355,None,1151.6040754199494,None,,,,,,,,,,,,,,,,,,,,,,,,,,,,,,,,,,,,,,,,,,,,,,,,,,,,,,,,,,,,,,,,,,,,,,,,,,,,,001,25,2019_Nov_05_1143,viewing,3.1.2,60.000627741265944,
south.png,stims/wedding-34.1a.mp4,stims/wedding-34.1b.mp4,stims/wedding-34.2b.mp4,stims/wedding-34.3a.mp4,stims/wedding-34.4b.mp4,stims/wedding-34.5.mp4,stimsday2details/painting34.png,stimsday2details/newpainting16.png,stimsday2details/couple34.png,stimsday2details/newperson32.png,stimsday2details/new32.png,stimsday2details/gift34.png,stimsday2details/n34.png,stimsday2details/cn34.png,stimsday2details/ct34.png,stimsday2details/t34.png,0,7,7,7,,,,,,,,,,,,,0,0,0,0,,,,,,,,,,,,,,,,,,,,,,,,,,,,,,,None,None,None,None,None,None,None,None,None,None,None,None,None,None,None,None,None,None,None,,None,None,None,,None,None,,,,,,,,,,,,,,,,,,,,,,,,,,,,,,,,,,,,,,,,,,,,,,,,,,,001,25,2019_Nov_05_1143,viewing,3.1.2,60.000627741265944,
south.png,stims/wedding-34.1a.mp4,stims/wedding-34.1b.mp4,stims/wedding-34.2b.mp4,stims/wedding-34.3a.mp4,stims/wedding-34.4b.mp4,stims/wedding-34.5.mp4,stimsday2details/painting34.png,stimsday2details/newpainting16.png,stimsday2details/couple34.png,stimsday2details/newperson32.png,stimsday2details/new32.png,stimsday2details/gift34.png,stimsday2details/n34.png,stimsday2details/cn34.png,stimsday2details/ct34.png,stimsday2details/t34.png,0,7,7,7,,,,,,,,,,,,,,,,,,,,,,,,,,,,,,,,,,,,,,,,,,,,,,,,,,,,,,,,,,,,,,,,,,,,,,,,,4.168704617768526e-05,None,1,0.8684391870629042,1175.070441990043,None,1175.070441990043,None,1175.070441990043,None,1177.0537458569743,None,1,0.7185644650598988,1177.0537458569743,None,1177.0537458569743,None,1179.0537254429655,None,1179.0537254429655,None,1,0.7184753590263426,1179.0537254429655,None,2,0.7687678629299626,1181.0536954579875,None,1181.0536954579875,None,1181.0536954579875,None,1183.0536716289353,None,1183.0536716289353,None,2,1.4669852319639176,1183.0536716289353,None,1185.0536474729888,None,1185.0536474729888,None,2,0.9353349700104445,1185.0536474729888,None,001,25,2019_Nov_05_1143,viewing,3.1.2,60.000627741265944,
south.png,stims/wedding-23.1a.mp4,stims/wedding-23.1b.mp4,stims/wedding-23.2a.mp4,stims/wedding-23.3b.mp4,stims/wedding-23.4a.mp4,stims/wedding-23.5.mp4,stimsday2details/newegg17.png,stimsday2details/egg23.png,stimsday2details/newperson33.png,stimsday2details/couple23.png,stimsday2details/gift23.png,stimsday2details/new33.png,stimsday2details/n23.png,stimsday2details/cn23.png,stimsday2details/ct23.png,stimsday2details/t23.png,0,8,8,8,0,0,0,0,,,,,,,,,,,,,,,,,,,,,,,,,1187.0536224680254,None,,,,,,,,,,,,,,,,,,,,,,,,,,,,,,,,,,,,,,,,,,,,,,,,,,,,,,,,,,,,,,,,,,,,,,,,,,,,,,,,,,,,,,,,,,,,,001,25,2019_Nov_05_1143,viewing,3.1.2,60.000627741265944,
south.png,stims/wedding-23.1a.mp4,stims/wedding-23.1b.mp4,stims/wedding-23.2a.mp4,stims/wedding-23.3b.mp4,stims/wedding-23.4a.mp4,stims/wedding-23.5.mp4,stimsday2details/newegg17.png,stimsday2details/egg23.png,stimsday2details/newperson33.png,stimsday2details/couple23.png,stimsday2details/gift23.png,stimsday2details/new33.png,stimsday2details/n23.png,stimsday2details/cn23.png,stimsday2details/ct23.png,stimsday2details/t23.png,0,8,8,8,,,,,0,0,0,0,,,,,,,,,,,,,,,,,,,,,,,None,None,,,,,,,,,,,,,,,,,,,,,,,,,,,,,,,,,,,,,,,,,,,,,,,,,,,,,,,,,,,,,,,,,,,,,,,,,,,,,,,,,,,,,,,,,,,001,25,2019_Nov_05_1143,viewing,3.1.2,60.000627741265944,
south.png,stims/wedding-23.1a.mp4,stims/wedding-23.1b.mp4,stims/wedding-23.2a.mp4,stims/wedding-23.3b.mp4,stims/wedding-23.4a.mp4,stims/wedding-23.5.mp4,stimsday2details/newegg17.png,stimsday2details/egg23.png,stimsday2details/newperson33.png,stimsday2details/couple23.png,stimsday2details/gift23.png,stimsday2details/new33.png,stimsday2details/n23.png,stimsday2details/cn23.png,stimsday2details/ct23.png,stimsday2details/t23.png,0,8,8,8,,,,,,,,,0,0,0,0,,,,,,,,,,,,,,,,,,,,,2.9275778729934245,None,1197.3868219689466,1222.4532450999832,1222.4698362109484,None,1231.4697246620199,1248.4528379769763,1248.4695095280185,1271.4525470229564,1271.4693270219723,1295.4522770399926,1295.4689082650002,None,,,,,,,,,,,,,,,,,,,,,,,,,,,,,,,,,,,,,,,,,,,,,,,,,,,,,,,,,,,,,,,,,,,,,,,,,,,,,001,25,2019_Nov_05_1143,viewing,3.1.2,60.000627741265944,
south.png,stims/wedding-23.1a.mp4,stims/wedding-23.1b.mp4,stims/wedding-23.2a.mp4,stims/wedding-23.3b.mp4,stims/wedding-23.4a.mp4,stims/wedding-23.5.mp4,stimsday2details/newegg17.png,stimsday2details/egg23.png,stimsday2details/newperson33.png,stimsday2details/couple23.png,stimsday2details/gift23.png,stimsday2details/new33.png,stimsday2details/n23.png,stimsday2details/cn23.png,stimsday2details/ct23.png,stimsday2details/t23.png,0,8,8,8,,,,,,,,,,,,,0,0,0,0,,,,,,,,,,,,,,,,,,,,,,,,,,,,,,,None,None,None,None,None,None,None,None,None,None,None,None,None,None,None,None,None,None,None,,None,None,None,,None,None,,,,,,,,,,,,,,,,,,,,,,,,,,,,,,,,,,,,,,,,,,,,,,,,,,,001,25,2019_Nov_05_1143,viewing,3.1.2,60.000627741265944,
south.png,stims/wedding-23.1a.mp4,stims/wedding-23.1b.mp4,stims/wedding-23.2a.mp4,stims/wedding-23.3b.mp4,stims/wedding-23.4a.mp4,stims/wedding-23.5.mp4,stimsday2details/newegg17.png,stimsday2details/egg23.png,stimsday2details/newperson33.png,stimsday2details/couple23.png,stimsday2details/gift23.png,stimsday2details/new33.png,stimsday2details/n23.png,stimsday2details/cn23.png,stimsday2details/ct23.png,stimsday2details/t23.png,0,8,8,8,,,,,,,,,,,,,,,,,,,,,,,,,,,,,,,,,,,,,,,,,,,,,,,,,,,,,,,,,,,,,,,,,,,,,,,,,3.546394873410463e-05,None,1,0.45249504898674786,1319.8852687779581,None,1319.8852687779581,None,1319.8852687779581,None,1321.8852419060422,None,2,0.8850944159785286,1321.8852419060422,None,1321.8852419060422,None,1323.8852127180435,None,1323.8852127180435,None,2,0.835230594035238,1323.8852127180435,None,2,0.9186406739754602,1325.885194892995,None,1325.885194892995,None,1325.885194892995,None,1327.8851680209627,None,1327.8851680209627,None,1,0.9853814209345728,1327.8851680209627,None,1329.8851401229622,None,1329.8851401229622,None,2,1.3684589280746877,1329.8851401229622,None,001,25,2019_Nov_05_1143,viewing,3.1.2,60.000627741265944,
north.png,stims/wedding-22.1a.mp4,stims/wedding-22.1b.mp4,stims/wedding-22.2b.mp4,stims/wedding-22.3b.mp4,stims/wedding-22.4b.mp4,stims/wedding-22.5.mp4,stimsday2details/painting22.png,stimsday2details/newpainting17.png,stimsday2details/couple22.png,stimsday2details/newperson34.png,stimsday2details/new34.png,stimsday2details/gift22.png,stimsday2details/n22.png,stimsday2details/cn22.png,stimsday2details/t22.png,stimsday2details/ct22.png,0,9,9,9,0,0,0,0,,,,,,,,,,,,,,,,,,,,,,,,,None,None,,,,,,,,,,,,,,,,,,,,,,,,,,,,,,,,,,,,,,,,,,,,,,,,,,,,,,,,,,,,,,,,,,,,,,,,,,,,,,,,,,,,,,,,,,,,,001,25,2019_Nov_05_1143,viewing,3.1.2,60.000627741265944,
north.png,stims/wedding-22.1a.mp4,stims/wedding-22.1b.mp4,stims/wedding-22.2b.mp4,stims/wedding-22.3b.mp4,stims/wedding-22.4b.mp4,stims/wedding-22.5.mp4,stimsday2details/painting22.png,stimsday2details/newpainting17.png,stimsday2details/couple22.png,stimsday2details/newperson34.png,stimsday2details/new34.png,stimsday2details/gift22.png,stimsday2details/n22.png,stimsday2details/cn22.png,stimsday2details/t22.png,stimsday2details/ct22.png,0,9,9,9,,,,,0,0,0,0,,,,,,,,,,,,,,,,,,,,,,,1332.2184399799444,None,,,,,,,,,,,,,,,,,,,,,,,,,,,,,,,,,,,,,,,,,,,,,,,,,,,,,,,,,,,,,,,,,,,,,,,,,,,,,,,,,,,,,,,,,,,001,25,2019_Nov_05_1143,viewing,3.1.2,60.000627741265944,
north.png,stims/wedding-22.1a.mp4,stims/wedding-22.1b.mp4,stims/wedding-22.2b.mp4,stims/wedding-22.3b.mp4,stims/wedding-22.4b.mp4,stims/wedding-22.5.mp4,stimsday2details/painting22.png,stimsday2details/newpainting17.png,stimsday2details/couple22.png,stimsday2details/newperson34.png,stimsday2details/new34.png,stimsday2details/gift22.png,stimsday2details/n22.png,stimsday2details/cn22.png,stimsday2details/t22.png,stimsday2details/ct22.png,0,9,9,9,,,,,,,,,0,0,0,0,,,,,,,,,,,,,,,,,,,,,2.950283873011358,None,1342.3850443320116,1367.451284548035,1367.451284548035,None,1376.45121323294,None,1393.450975076994,1416.4507002739701,1416.4507002739701,None,1440.4503979119472,None,,,,,,,,,,,,,,,,,,,,,,,,,,,,,,,,,,,,,,,,,,,,,,,,,,,,,,,,,,,,,,,,,,,,,,,,,,,,,001,25,2019_Nov_05_1143,viewing,3.1.2,60.000627741265944,
north.png,stims/wedding-22.1a.mp4,stims/wedding-22.1b.mp4,stims/wedding-22.2b.mp4,stims/wedding-22.3b.mp4,stims/wedding-22.4b.mp4,stims/wedding-22.5.mp4,stimsday2details/painting22.png,stimsday2details/newpainting17.png,stimsday2details/couple22.png,stimsday2details/newperson34.png,stimsday2details/new34.png,stimsday2details/gift22.png,stimsday2details/n22.png,stimsday2details/cn22.png,stimsday2details/t22.png,stimsday2details/ct22.png,0,9,9,9,,,,,,,,,,,,,0,0,0,0,,,,,,,,,,,,,,,,,,,,,,,,,,,,,,,None,None,None,None,None,None,None,None,None,None,None,None,None,None,None,None,None,None,None,,None,None,None,,None,None,,,,,,,,,,,,,,,,,,,,,,,,,,,,,,,,,,,,,,,,,,,,,,,,,,,001,25,2019_Nov_05_1143,viewing,3.1.2,60.000627741265944,
north.png,stims/wedding-22.1a.mp4,stims/wedding-22.1b.mp4,stims/wedding-22.2b.mp4,stims/wedding-22.3b.mp4,stims/wedding-22.4b.mp4,stims/wedding-22.5.mp4,stimsday2details/painting22.png,stimsday2details/newpainting17.png,stimsday2details/couple22.png,stimsday2details/newperson34.png,stimsday2details/new34.png,stimsday2details/gift22.png,stimsday2details/n22.png,stimsday2details/cn22.png,stimsday2details/t22.png,stimsday2details/ct22.png,0,9,9,9,,,,,,,,,,,,,,,,,,,,,,,,,,,,,,,,,,,,,,,,,,,,,,,,,,,,,,,,,,,,,,,,,,,,,,,,,6.886199116706848e-05,None,1,0.4356001749401912,1464.3001239439473,None,1464.3001239439473,None,1464.3001239439473,None,1466.300067555043,None,1,1.4183815900469199,1466.300067555043,None,1466.300067555043,None,1468.3000738560222,None,1468.3000738560222,None,1,0.9502770130056888,1468.3000738560222,None,1,1.4687056599650532,1470.3000190409366,None,1470.3000190409366,None,1470.3000190409366,None,1472.2999953120016,None,1472.2999953120016,None,2,0.7185200409730896,1472.2999953120016,None,1474.2999703489477,None,1474.2999703489477,None,1,1.4024729409720749,1474.2999703489477,None,001,25,2019_Nov_05_1143,viewing,3.1.2,60.000627741265944,
north.png,stims/wedding-29.1a.mp4,stims/wedding-29.1b.mp4,stims/wedding-29.2a.mp4,stims/wedding-29.3a.mp4,stims/wedding-29.4a.mp4,stims/wedding-29.5.mp4,stimsday2details/newegg18.png,stimsday2details/egg29.png,stimsday2details/newperson35.png,stimsday2details/couple29.png,stimsday2details/new35.png,stimsday2details/gift29.png,stimsday2details/cn29.png,stimsday2details/n29.png,stimsday2details/t29.png,stimsday2details/ct29.png,0,10,10,10,0,0,0,0,,,,,,,,,,,,,,,,,,,,,,,,,None,None,,,,,,,,,,,,,,,,,,,,,,,,,,,,,,,,,,,,,,,,,,,,,,,,,,,,,,,,,,,,,,,,,,,,,,,,,,,,,,,,,,,,,,,,,,,,,001,25,2019_Nov_05_1143,viewing,3.1.2,60.000627741265944,
north.png,stims/wedding-29.1a.mp4,stims/wedding-29.1b.mp4,stims/wedding-29.2a.mp4,stims/wedding-29.3a.mp4,stims/wedding-29.4a.mp4,stims/wedding-29.5.mp4,stimsday2details/newegg18.png,stimsday2details/egg29.png,stimsday2details/newperson35.png,stimsday2details/couple29.png,stimsday2details/new35.png,stimsday2details/gift29.png,stimsday2details/cn29.png,stimsday2details/n29.png,stimsday2details/t29.png,stimsday2details/ct29.png,0,10,10,10,,,,,0,0,0,0,,,,,,,,,,,,,,,,,,,,,,,1476.533284344012,None,,,,,,,,,,,,,,,,,,,,,,,,,,,,,,,,,,,,,,,,,,,,,,,,,,,,,,,,,,,,,,,,,,,,,,,,,,,,,,,,,,,,,,,,,,,001,25,2019_Nov_05_1143,viewing,3.1.2,60.000627741265944,
north.png,stims/wedding-29.1a.mp4,stims/wedding-29.1b.mp4,stims/wedding-29.2a.mp4,stims/wedding-29.3a.mp4,stims/wedding-29.4a.mp4,stims/wedding-29.5.mp4,stimsday2details/newegg18.png,stimsday2details/egg29.png,stimsday2details/newperson35.png,stimsday2details/couple29.png,stimsday2details/new35.png,stimsday2details/gift29.png,stimsday2details/cn29.png,stimsday2details/n29.png,stimsday2details/t29.png,stimsday2details/ct29.png,0,10,10,10,,,,,,,,,0,0,0,0,,,,,,,,,,,,,,,,,,,,,2.8124949620105326,None,1486.599811994005,1511.7828254919732,1511.7994929429842,None,1520.799380728975,None,1537.7991622700356,None,1560.7988678499823,None,1584.798559190007,None,,,,,,,,,,,,,,,,,,,,,,,,,,,,,,,,,,,,,,,,,,,,,,,,,,,,,,,,,,,,,,,,,,,,,,,,,,,,,001,25,2019_Nov_05_1143,viewing,3.1.2,60.000627741265944,
north.png,stims/wedding-29.1a.mp4,stims/wedding-29.1b.mp4,stims/wedding-29.2a.mp4,stims/wedding-29.3a.mp4,stims/wedding-29.4a.mp4,stims/wedding-29.5.mp4,stimsday2details/newegg18.png,stimsday2details/egg29.png,stimsday2details/newperson35.png,stimsday2details/couple29.png,stimsday2details/new35.png,stimsday2details/gift29.png,stimsday2details/cn29.png,stimsday2details/n29.png,stimsday2details/t29.png,stimsday2details/ct29.png,0,10,10,10,,,,,,,,,,,,,0,0,0,0,,,,,,,,,,,,,,,,,,,,,,,,,,,,,,,None,None,None,None,None,None,None,None,None,None,None,None,None,None,None,None,None,None,None,,None,None,None,,None,None,,,,,,,,,,,,,,,,,,,,,,,,,,,,,,,,,,,,,,,,,,,,,,,,,,,001,25,2019_Nov_05_1143,viewing,3.1.2,60.000627741265944,
north.png,stims/wedding-29.1a.mp4,stims/wedding-29.1b.mp4,stims/wedding-29.2a.mp4,stims/wedding-29.3a.mp4,stims/wedding-29.4a.mp4,stims/wedding-29.5.mp4,stimsday2details/newegg18.png,stimsday2details/egg29.png,stimsday2details/newperson35.png,stimsday2details/couple29.png,stimsday2details/new35.png,stimsday2details/gift29.png,stimsday2details/cn29.png,stimsday2details/n29.png,stimsday2details/t29.png,stimsday2details/ct29.png,0,10,10,10,,,,,,,,,,,,,,,,,,,,,,,,,,,,,,,,,,,,,,,,,,,,,,,,,,,,,,,,,,,,,,,,,,,,,,,,,2.729194238781929e-05,None,2,0.8019901039078832,1608.5815311180195,None,1608.5815311180195,None,1608.5815311180195,None,1610.5648982359562,None,2,0.6851185059640557,1610.5648982359562,None,1610.5648982359562,None,1612.5649307799758,None,1612.5649307799758,None,2,0.751748385024257,1612.5649307799758,None,1,0.8018931580008939,1614.5648515420035,None,1614.5648515420035,None,1614.5648515420035,None,1616.5648386019748,None,1616.5648386019748,None,2,0.5185082269599661,1616.5648386019748,None,1618.5648013909813,None,1618.5648013909813,None,1,0.785319900023751,1618.5648013909813,None,001,25,2019_Nov_05_1143,viewing,3.1.2,60.000627741265944,
south.png,stims/wedding-1.1a.mp4,stims/wedding-1.1b.mp4,stims/wedding-1.2b.mp4,stims/wedding-1.3a.mp4,stims/wedding-1.4b.mp4,stims/wedding-1.5.mp4,stimsday2details/painting1.png,stimsday2details/newpainting18.png,stimsday2details/couple1.png,stimsday2details/newperson36.png,stimsday2details/gift1.png,stimsday2details/new36.png,stimsday2details/cn1.png,stimsday2details/n1.png,stimsday2details/ct1.png,stimsday2details/t1.png,0,11,11,11,0,0,0,0,,,,,,,,,,,,,,,,,,,,,,,,,1620.5647710099583,None,,,,,,,,,,,,,,,,,,,,,,,,,,,,,,,,,,,,,,,,,,,,,,,,,,,,,,,,,,,,,,,,,,,,,,,,,,,,,,,,,,,,,,,,,,,,,001,25,2019_Nov_05_1143,viewing,3.1.2,60.000627741265944,
south.png,stims/wedding-1.1a.mp4,stims/wedding-1.1b.mp4,stims/wedding-1.2b.mp4,stims/wedding-1.3a.mp4,stims/wedding-1.4b.mp4,stims/wedding-1.5.mp4,stimsday2details/painting1.png,stimsday2details/newpainting18.png,stimsday2details/couple1.png,stimsday2details/newperson36.png,stimsday2details/gift1.png,stimsday2details/new36.png,stimsday2details/cn1.png,stimsday2details/n1.png,stimsday2details/ct1.png,stimsday2details/t1.png,0,11,11,11,,,,,0,0,0,0,,,,,,,,,,,,,,,,,,,,,,,None,None,,,,,,,,,,,,,,,,,,,,,,,,,,,,,,,,,,,,,,,,,,,,,,,,,,,,,,,,,,,,,,,,,,,,,,,,,,,,,,,,,,,,,,,,,,,001,25,2019_Nov_05_1143,viewing,3.1.2,60.000627741265944,
south.png,stims/wedding-1.1a.mp4,stims/wedding-1.1b.mp4,stims/wedding-1.2b.mp4,stims/wedding-1.3a.mp4,stims/wedding-1.4b.mp4,stims/wedding-1.5.mp4,stimsday2details/painting1.png,stimsday2details/newpainting18.png,stimsday2details/couple1.png,stimsday2details/newperson36.png,stimsday2details/gift1.png,stimsday2details/new36.png,stimsday2details/cn1.png,stimsday2details/n1.png,stimsday2details/ct1.png,stimsday2details/t1.png,0,11,11,11,,,,,,,,,0,0,0,0,,,,,,,,,,,,,,,,,,,,,None,None,None,None,None,None,None,None,None,None,None,None,None,None,,,,,,,,,,,,,,,,,,,,,,,,,,,,,,,,,,,,,,,,,,,,,,,,,,,,,,,,,,,,,,,,,,,,,,,,,,,,,001,25,2019_Nov_05_1143,viewing,3.1.2,60.000627741265944,
south.png,stims/wedding-1.1a.mp4,stims/wedding-1.1b.mp4,stims/wedding-1.2b.mp4,stims/wedding-1.3a.mp4,stims/wedding-1.4b.mp4,stims/wedding-1.5.mp4,stimsday2details/painting1.png,stimsday2details/newpainting18.png,stimsday2details/couple1.png,stimsday2details/newperson36.png,stimsday2details/gift1.png,stimsday2details/new36.png,stimsday2details/cn1.png,stimsday2details/n1.png,stimsday2details/ct1.png,stimsday2details/t1.png,0,11,11,11,,,,,,,,,,,,,0,0,0,0,,,,,,,,,,,,,,,,,,,,,,,,,,,,,,,2.839532727957703,None,1634.0645834569586,1659.214276115992,1659.2310712670442,None,1668.230835285969,None,1685.2306169309886,1689.2138958310243,1689.2305624949513,1712.2136066349922,1712.2302665159805,1716.2135527549544,1716.230229208013,1740.2132492120145,1740.2299193399958,None,['1'],[3.301906578009948],1684.230631813989,1689.2138958310243,['2'],[2.80175327102188],1711.2303047219757,1716.2135527549544,,,,,,,,,,,,,,,,,,,,,,,,,,,,,,,,,,,,,,,,,,,,,,,,,,,001,25,2019_Nov_05_1143,viewing,3.1.2,60.000627741265944,
south.png,stims/wedding-1.1a.mp4,stims/wedding-1.1b.mp4,stims/wedding-1.2b.mp4,stims/wedding-1.3a.mp4,stims/wedding-1.4b.mp4,stims/wedding-1.5.mp4,stimsday2details/painting1.png,stimsday2details/newpainting18.png,stimsday2details/couple1.png,stimsday2details/newperson36.png,stimsday2details/gift1.png,stimsday2details/new36.png,stimsday2details/cn1.png,stimsday2details/n1.png,stimsday2details/ct1.png,stimsday2details/t1.png,0,11,11,11,,,,,,,,,,,,,,,,,,,,,,,,,,,,,,,,,,,,,,,,,,,,,,,,,,,,,,,,,,,,,,,,,,,,,,,,,3.824301529675722e-05,None,2,0.9021004709647968,1761.0130138370441,None,1761.0130138370441,None,1761.0130138370441,None,1762.996231519035,None,1,0.5855263959383592,1762.996231519035,None,1762.996231519035,None,1764.9961998719955,None,1764.9961998719955,None,1,1.0520174570847303,1764.9961998719955,None,2,1.0684406909858808,1766.9962418969953,None,1766.9962418969953,None,1766.9962418969953,None,1768.996217338019,None,1768.996217338019,None,1,0.6517847540089861,1768.996217338019,None,1770.9961877990281,None,1770.9961877990281,None,2,0.8855296599213034,1770.9961877990281,None,001,25,2019_Nov_05_1143,viewing,3.1.2,60.000627741265944,
