northOrSouth,stimFile1a,stimFile1b,stimFile2,stimFile3,stimFile4,stimFile5,Qeggpainting1,Qeggpainting2,Qcharacter1,Qcharacter2,Qgift1,Qgift2,Qname1,Qname2,Qtheme1,Qtheme2,trials.thisRepN,trials.thisTrialN,trials.thisN,trials.thisIndex,South.thisRepN,South.thisTrialN,South.thisN,South.thisIndex,North.thisRepN,North.thisTrialN,North.thisN,North.thisIndex,noQtrials.thisRepN,noQtrials.thisTrialN,noQtrials.thisN,noQtrials.thisIndex,Qtrials.thisRepN,Qtrials.thisTrialN,Qtrials.thisN,Qtrials.thisIndex,text.started,text.stopped,prep_trigger.keys,prep_trigger.rt,prep_trigger.started,prep_trigger.stopped,waiting.started,waiting.stopped,trigger.keys,trigger.rt,trigger.started,trigger.stopped,southCueImage.started,southCueImage.stopped,northCueImage.started,northCueImage.stopped,trialNoQs.started,trialNoQs.stopped,vid1a.started,vid1a.stopped,vid1b.started,vid1b.stopped,vid2.started,vid2.stopped,vid3.started,vid3.stopped,vid4.started,vid4.stopped,vid5.started,vid5.stopped,ISI2.started,ISI2.stopped,vid1a_q.started,vid1a_q.stopped,vid1b_q.started,vid1b_q.stopped,vid2_q.started,vid2_q.stopped,l2q.started,l2q.stopped,vid3_q.started,vid3_q.stopped,l3q.started,l3q.stopped,vid4_q.started,vid4_q.stopped,vid5_q.started,vid5_q.stopped,key_resp_2.keys,key_resp_2.rt,key_resp_2.started,key_resp_2.stopped,key_resp_3.keys,key_resp_3.rt,key_resp_3.started,key_resp_3.stopped,ISI7.started,ISI7.stopped,nameQresp.keys,nameQresp.rt,nameQresp.started,nameQresp.stopped,nameQ1.started,nameQ1.stopped,nameQ2.started,nameQ2.stopped,eggPainting1.started,eggPainting1.stopped,eggPaintingQresp.keys,eggPaintingQresp.rt,eggPaintingQresp.started,eggPaintingQresp.stopped,eggPainting2.started,eggPainting2.stopped,character1.started,character1.stopped,character2.started,character2.stopped,Qcharacter.keys,Qcharacter.rt,Qcharacter.started,Qcharacter.stopped,themeQresp.keys,themeQresp.rt,themeQresp.started,themeQresp.stopped,themeQ1.started,themeQ1.stopped,themeQ2.started,themeQ2.stopped,gift1.started,gift1.stopped,gift2.started,gift2.stopped,giftQresp.keys,giftQresp.rt,giftQresp.started,giftQresp.stopped,northorsouth1.started,northorsouth1.stopped,northorsouth2.started,northorsouth2.stopped,northOrSouthQ.keys,northOrSouthQ.rt,northOrSouthQ.started,northOrSouthQ.stopped,session,participant,date,expName,psychopyVersion,frameRate,
,,,,,,,,,,,,,,,,,,,,,,,,,,,,,,,,,,,,,7.641598023008555,None,g,1.1248993730405346,7.641598023008555,None,,,,,,,,,,,,,,,,,,,,,,,,,,,,,,,,,,,,,,,,,,,,,,,,,,,,,,,,,,,,,,,,,,,,,,,,,,,,,,,,,,,,,,,,,,,,,,,,,,,,,001,3,2019_Jul_09_1532,viewing,3.1.2,60.00559591719767,
,,,,,,,,,,,,,,,,,,,,,,,,,,,,,,,,,,,,,,,,,,,8.77585142897442,None,equal,72.1337505170377,8.77585142897442,None,,,,,,,,,,,,,,,,,,,,,,,,,,,,,,,,,,,,,,,,,,,,,,,,,,,,,,,,,,,,,,,,,,,,,,,,,,,,,,,,,,,,,,,,,,,,,,,001,3,2019_Jul_09_1532,viewing,3.1.2,60.00559591719767,
south.png,stims/wedding-20.1a.mp4,stims/wedding-20.1b.mp4,stims/wedding-20.2b.mp4,stims/wedding-20.3a.mp4,stims/wedding-20.4b.mp4,stims/wedding-20.5.mp4,stimsday2details/newpainting13.png,stimsday2details/painting20.png,stimsday2details/newperson25.png,stimsday2details/couple20.png,stimsday2details/gift20.png,stimsday2details/new25.png,stimsday2details/n20.png,stimsday2details/cn20.png,stimsday2details/t20.png,stimsday2details/ct20.png,0,0,0,0,0,0,0,0,,,,,,,,,,,,,,,,,,,,,,,,,81.02424943691585,None,,,,,,,,,,,,,,,,,,,,,,,,,,,,,,,,,,,,,,,,,,,,,,,,,,,,,,,,,,,,,,,,,,,,,,,,,,,,,,,,,,,,,,,,,,,,,001,3,2019_Jul_09_1532,viewing,3.1.2,60.00559591719767,
south.png,stims/wedding-20.1a.mp4,stims/wedding-20.1b.mp4,stims/wedding-20.2b.mp4,stims/wedding-20.3a.mp4,stims/wedding-20.4b.mp4,stims/wedding-20.5.mp4,stimsday2details/newpainting13.png,stimsday2details/painting20.png,stimsday2details/newperson25.png,stimsday2details/couple20.png,stimsday2details/gift20.png,stimsday2details/new25.png,stimsday2details/n20.png,stimsday2details/cn20.png,stimsday2details/t20.png,stimsday2details/ct20.png,0,0,0,0,,,,,0,0,0,0,,,,,,,,,,,,,,,,,,,,,,,None,None,,,,,,,,,,,,,,,,,,,,,,,,,,,,,,,,,,,,,,,,,,,,,,,,,,,,,,,,,,,,,,,,,,,,,,,,,,,,,,,,,,,,,,,,,,,001,3,2019_Jul_09_1532,viewing,3.1.2,60.00559591719767,
south.png,stims/wedding-20.1a.mp4,stims/wedding-20.1b.mp4,stims/wedding-20.2b.mp4,stims/wedding-20.3a.mp4,stims/wedding-20.4b.mp4,stims/wedding-20.5.mp4,stimsday2details/newpainting13.png,stimsday2details/painting20.png,stimsday2details/newperson25.png,stimsday2details/couple20.png,stimsday2details/gift20.png,stimsday2details/new25.png,stimsday2details/n20.png,stimsday2details/cn20.png,stimsday2details/t20.png,stimsday2details/ct20.png,0,0,0,0,,,,,,,,,0,0,0,0,,,,,,,,,,,,,,,,,,,,,None,None,None,None,None,None,None,None,None,None,None,None,None,None,,,,,,,,,,,,,,,,,,,,,,,,,,,,,,,,,,,,,,,,,,,,,,,,,,,,,,,,,,,,,,,,,,,,,,,,,,,,,001,3,2019_Jul_09_1532,viewing,3.1.2,60.00559591719767,
south.png,stims/wedding-20.1a.mp4,stims/wedding-20.1b.mp4,stims/wedding-20.2b.mp4,stims/wedding-20.3a.mp4,stims/wedding-20.4b.mp4,stims/wedding-20.5.mp4,stimsday2details/newpainting13.png,stimsday2details/painting20.png,stimsday2details/newperson25.png,stimsday2details/couple20.png,stimsday2details/gift20.png,stimsday2details/new25.png,stimsday2details/n20.png,stimsday2details/cn20.png,stimsday2details/t20.png,stimsday2details/ct20.png,0,0,0,0,,,,,,,,,,,,,0,0,0,0,,,,,,,,,,,,,,,,,,,,,,,,,,,,,,,2.7449558440130204,None,94.22471472190227,119.47457252198365,119.49015765194781,None,128.49045724293683,None,145.49595199793112,149.47310813493095,149.4911866929615,172.47839665098581,172.49062443699222,176.47759373800363,176.49038457893766,None,200.48982752498705,None,['1'],[3.6833082520170137],144.49196573800873,149.47310813493095,['2'],[3.3177470540395007],171.4908607719699,176.47759373800363,,,,,,,,,,,,,,,,,,,,,,,,,,,,,,,,,,,,,,,,,,,,,,,,,,,001,3,2019_Jul_09_1532,viewing,3.1.2,60.00559591719767,
south.png,stims/wedding-20.1a.mp4,stims/wedding-20.1b.mp4,stims/wedding-20.2b.mp4,stims/wedding-20.3a.mp4,stims/wedding-20.4b.mp4,stims/wedding-20.5.mp4,stimsday2details/newpainting13.png,stimsday2details/painting20.png,stimsday2details/newperson25.png,stimsday2details/couple20.png,stimsday2details/gift20.png,stimsday2details/new25.png,stimsday2details/n20.png,stimsday2details/cn20.png,stimsday2details/t20.png,stimsday2details/ct20.png,0,0,0,0,,,,,,,,,,,,,,,,,,,,,,,,,,,,,,,,,,,,,,,,,,,,,,,,,,,,,,,,,,,,,,,,,,,,,,,,,2.2131018340587616e-05,None,1,1.100802049972117,220.15682313090656,None,220.15682313090656,None,220.15682313090656,None,222.15593978192192,None,2,0.685266422922723,222.15593978192192,None,222.15593978192192,None,224.15561756899115,None,224.15561756899115,None,2,0.9727753230836242,224.15561756899115,None,1,1.1355955429608002,226.1561264609918,None,226.1561264609918,None,226.1561264609918,None,228.15571905998513,None,228.15571905998513,None,1,0.6182387250009924,228.15571905998513,None,230.1556347819278,None,230.1556347819278,None,2,0.9392179340356961,230.1556347819278,None,001,3,2019_Jul_09_1532,viewing,3.1.2,60.00559591719767,
north.png,stims/wedding-23.1a.mp4,stims/wedding-23.1b.mp4,stims/wedding-23.2a.mp4,stims/wedding-23.3a.mp4,stims/wedding-23.4a.mp4,stims/wedding-23.5.mp4,stimsday2details/newegg13.png,stimsday2details/egg23.png,stimsday2details/couple23.png,stimsday2details/newperson26.png,stimsday2details/new26.png,stimsday2details/gift23.png,stimsday2details/cn23.png,stimsday2details/n23.png,stimsday2details/t23.png,stimsday2details/ct23.png,0,1,1,1,0,0,0,0,,,,,,,,,,,,,,,,,,,,,,,,,None,None,,,,,,,,,,,,,,,,,,,,,,,,,,,,,,,,,,,,,,,,,,,,,,,,,,,,,,,,,,,,,,,,,,,,,,,,,,,,,,,,,,,,,,,,,,,,,001,3,2019_Jul_09_1532,viewing,3.1.2,60.00559591719767,
north.png,stims/wedding-23.1a.mp4,stims/wedding-23.1b.mp4,stims/wedding-23.2a.mp4,stims/wedding-23.3a.mp4,stims/wedding-23.4a.mp4,stims/wedding-23.5.mp4,stimsday2details/newegg13.png,stimsday2details/egg23.png,stimsday2details/couple23.png,stimsday2details/newperson26.png,stimsday2details/new26.png,stimsday2details/gift23.png,stimsday2details/cn23.png,stimsday2details/n23.png,stimsday2details/t23.png,stimsday2details/ct23.png,0,1,1,1,,,,,0,0,0,0,,,,,,,,,,,,,,,,,,,,,,,232.20570698089432,None,,,,,,,,,,,,,,,,,,,,,,,,,,,,,,,,,,,,,,,,,,,,,,,,,,,,,,,,,,,,,,,,,,,,,,,,,,,,,,,,,,,,,,,,,,,001,3,2019_Jul_09_1532,viewing,3.1.2,60.00559591719767,
north.png,stims/wedding-23.1a.mp4,stims/wedding-23.1b.mp4,stims/wedding-23.2a.mp4,stims/wedding-23.3a.mp4,stims/wedding-23.4a.mp4,stims/wedding-23.5.mp4,stimsday2details/newegg13.png,stimsday2details/egg23.png,stimsday2details/couple23.png,stimsday2details/newperson26.png,stimsday2details/new26.png,stimsday2details/gift23.png,stimsday2details/cn23.png,stimsday2details/n23.png,stimsday2details/t23.png,stimsday2details/ct23.png,0,1,1,1,,,,,,,,,0,0,0,0,,,,,,,,,,,,,,,,,,,,,3.024318746989593,None,242.2895715329796,267.26021516893525,267.27267428592313,None,276.2720147148939,293.2598566409433,293.2720495079411,316.26004762295634,316.272984313895,340.2580247540027,340.27112364792265,None,,,,,,,,,,,,,,,,,,,,,,,,,,,,,,,,,,,,,,,,,,,,,,,,,,,,,,,,,,,,,,,,,,,,,,,,,,,,,001,3,2019_Jul_09_1532,viewing,3.1.2,60.00559591719767,
north.png,stims/wedding-23.1a.mp4,stims/wedding-23.1b.mp4,stims/wedding-23.2a.mp4,stims/wedding-23.3a.mp4,stims/wedding-23.4a.mp4,stims/wedding-23.5.mp4,stimsday2details/newegg13.png,stimsday2details/egg23.png,stimsday2details/couple23.png,stimsday2details/newperson26.png,stimsday2details/new26.png,stimsday2details/gift23.png,stimsday2details/cn23.png,stimsday2details/n23.png,stimsday2details/t23.png,stimsday2details/ct23.png,0,1,1,1,,,,,,,,,,,,,0,0,0,0,,,,,,,,,,,,,,,,,,,,,,,,,,,,,,,None,None,None,None,None,None,None,None,None,None,None,None,None,None,None,None,None,None,None,,None,None,None,,None,None,,,,,,,,,,,,,,,,,,,,,,,,,,,,,,,,,,,,,,,,,,,,,,,,,,,001,3,2019_Jul_09_1532,viewing,3.1.2,60.00559591719767,
north.png,stims/wedding-23.1a.mp4,stims/wedding-23.1b.mp4,stims/wedding-23.2a.mp4,stims/wedding-23.3a.mp4,stims/wedding-23.4a.mp4,stims/wedding-23.5.mp4,stimsday2details/newegg13.png,stimsday2details/egg23.png,stimsday2details/couple23.png,stimsday2details/newperson26.png,stimsday2details/new26.png,stimsday2details/gift23.png,stimsday2details/cn23.png,stimsday2details/n23.png,stimsday2details/t23.png,stimsday2details/ct23.png,0,1,1,1,,,,,,,,,,,,,,,,,,,,,,,,,,,,,,,,,,,,,,,,,,,,,,,,,,,,,,,,,,,,,,,,,,,,,,,,,2.944504376500845e-05,None,2,0.8794801930198446,364.37678494595457,None,364.37678494595457,None,364.37678494595457,None,366.37064603494946,None,2,0.6861578489188105,366.37064603494946,None,366.37064603494946,None,368.3704347698949,None,368.3704347698949,None,1,0.7517773819854483,368.3704347698949,None,1,0.8898466470418498,370.3716877870029,None,370.3716877870029,None,370.3716877870029,None,372.37145479989704,None,372.37145479989704,None,2,0.9179947020020336,372.37145479989704,None,374.37057605490554,None,374.37057605490554,None,1,1.106378210010007,374.37057605490554,None,001,3,2019_Jul_09_1532,viewing,3.1.2,60.00559591719767,
north.png,stims/wedding-6.1a.mp4,stims/wedding-6.1b.mp4,stims/wedding-6.2a.mp4,stims/wedding-6.3a.mp4,stims/wedding-6.4a.mp4,stims/wedding-6.5.mp4,stimsday2details/egg6.png,stimsday2details/newegg14.png,stimsday2details/newperson27.png,stimsday2details/couple6.png,stimsday2details/new27.png,stimsday2details/gift6.png,stimsday2details/cn6.png,stimsday2details/n6.png,stimsday2details/ct6.png,stimsday2details/t6.png,0,2,2,2,0,0,0,0,,,,,,,,,,,,,,,,,,,,,,,,,None,None,,,,,,,,,,,,,,,,,,,,,,,,,,,,,,,,,,,,,,,,,,,,,,,,,,,,,,,,,,,,,,,,,,,,,,,,,,,,,,,,,,,,,,,,,,,,,001,3,2019_Jul_09_1532,viewing,3.1.2,60.00559591719767,
north.png,stims/wedding-6.1a.mp4,stims/wedding-6.1b.mp4,stims/wedding-6.2a.mp4,stims/wedding-6.3a.mp4,stims/wedding-6.4a.mp4,stims/wedding-6.5.mp4,stimsday2details/egg6.png,stimsday2details/newegg14.png,stimsday2details/newperson27.png,stimsday2details/couple6.png,stimsday2details/new27.png,stimsday2details/gift6.png,stimsday2details/cn6.png,stimsday2details/n6.png,stimsday2details/ct6.png,stimsday2details/t6.png,0,2,2,2,,,,,0,0,0,0,,,,,,,,,,,,,,,,,,,,,,,376.437743044924,None,,,,,,,,,,,,,,,,,,,,,,,,,,,,,,,,,,,,,,,,,,,,,,,,,,,,,,,,,,,,,,,,,,,,,,,,,,,,,,,,,,,,,,,,,,,001,3,2019_Jul_09_1532,viewing,3.1.2,60.00559591719767,
north.png,stims/wedding-6.1a.mp4,stims/wedding-6.1b.mp4,stims/wedding-6.2a.mp4,stims/wedding-6.3a.mp4,stims/wedding-6.4a.mp4,stims/wedding-6.5.mp4,stimsday2details/egg6.png,stimsday2details/newegg14.png,stimsday2details/newperson27.png,stimsday2details/couple6.png,stimsday2details/new27.png,stimsday2details/gift6.png,stimsday2details/cn6.png,stimsday2details/n6.png,stimsday2details/ct6.png,stimsday2details/t6.png,0,2,2,2,,,,,,,,,0,0,0,0,,,,,,,,,,,,,,,,,,,,,3.0546235770452768,None,386.57026002695784,411.52065054897685,411.52065054897685,None,420.5208763779374,437.52102811890654,437.52102811890654,460.51991604000796,460.51991604000796,484.5204069829779,484.5204069829779,None,,,,,,,,,,,,,,,,,,,,,,,,,,,,,,,,,,,,,,,,,,,,,,,,,,,,,,,,,,,,,,,,,,,,,,,,,,,,,001,3,2019_Jul_09_1532,viewing,3.1.2,60.00559591719767,
north.png,stims/wedding-6.1a.mp4,stims/wedding-6.1b.mp4,stims/wedding-6.2a.mp4,stims/wedding-6.3a.mp4,stims/wedding-6.4a.mp4,stims/wedding-6.5.mp4,stimsday2details/egg6.png,stimsday2details/newegg14.png,stimsday2details/newperson27.png,stimsday2details/couple6.png,stimsday2details/new27.png,stimsday2details/gift6.png,stimsday2details/cn6.png,stimsday2details/n6.png,stimsday2details/ct6.png,stimsday2details/t6.png,0,2,2,2,,,,,,,,,,,,,0,0,0,0,,,,,,,,,,,,,,,,,,,,,,,,,,,,,,,None,None,None,None,None,None,None,None,None,None,None,None,None,None,None,None,None,None,None,,None,None,None,,None,None,,,,,,,,,,,,,,,,,,,,,,,,,,,,,,,,,,,,,,,,,,,,,,,,,,,001,3,2019_Jul_09_1532,viewing,3.1.2,60.00559591719767,
north.png,stims/wedding-6.1a.mp4,stims/wedding-6.1b.mp4,stims/wedding-6.2a.mp4,stims/wedding-6.3a.mp4,stims/wedding-6.4a.mp4,stims/wedding-6.5.mp4,stimsday2details/egg6.png,stimsday2details/newegg14.png,stimsday2details/newperson27.png,stimsday2details/couple6.png,stimsday2details/new27.png,stimsday2details/gift6.png,stimsday2details/cn6.png,stimsday2details/n6.png,stimsday2details/ct6.png,stimsday2details/t6.png,0,2,2,2,,,,,,,,,,,,,,,,,,,,,,,,,,,,,,,,,,,,,,,,,,,,,,,,,,,,,,,,,,,,,,,,,,,,,,,,,4.0681916289031506e-05,None,2,1.1001388980075717,508.3747432240052,None,508.3747432240052,None,508.3747432240052,None,510.3729434539564,None,1,0.6201864399481565,510.3729434539564,None,510.3729434539564,None,512.3697121109581,None,512.3697121109581,None,2,0.9522505030035973,512.3697121109581,None,2,0.951964562991634,514.3571999559645,None,514.3571999559645,None,514.3571999559645,None,516.3571217799326,None,516.3571217799326,None,2,0.889861332019791,516.3571217799326,None,518.3574070589384,None,518.3574070589384,None,1,1.532700106035918,518.3574070589384,None,001,3,2019_Jul_09_1532,viewing,3.1.2,60.00559591719767,
south.png,stims/wedding-17.1a.mp4,stims/wedding-17.1b.mp4,stims/wedding-17.2b.mp4,stims/wedding-17.3a.mp4,stims/wedding-17.4b.mp4,stims/wedding-17.5.mp4,stimsday2details/painting17.png,stimsday2details/newpainting14.png,stimsday2details/couple17.png,stimsday2details/newperson28.png,stimsday2details/gift17.png,stimsday2details/new28.png,stimsday2details/n17.png,stimsday2details/cn17.png,stimsday2details/t17.png,stimsday2details/ct17.png,0,3,3,3,0,0,0,0,,,,,,,,,,,,,,,,,,,,,,,,,520.352862636908,None,,,,,,,,,,,,,,,,,,,,,,,,,,,,,,,,,,,,,,,,,,,,,,,,,,,,,,,,,,,,,,,,,,,,,,,,,,,,,,,,,,,,,,,,,,,,,001,3,2019_Jul_09_1532,viewing,3.1.2,60.00559591719767,
south.png,stims/wedding-17.1a.mp4,stims/wedding-17.1b.mp4,stims/wedding-17.2b.mp4,stims/wedding-17.3a.mp4,stims/wedding-17.4b.mp4,stims/wedding-17.5.mp4,stimsday2details/painting17.png,stimsday2details/newpainting14.png,stimsday2details/couple17.png,stimsday2details/newperson28.png,stimsday2details/gift17.png,stimsday2details/new28.png,stimsday2details/n17.png,stimsday2details/cn17.png,stimsday2details/t17.png,stimsday2details/ct17.png,0,3,3,3,,,,,0,0,0,0,,,,,,,,,,,,,,,,,,,,,,,None,None,,,,,,,,,,,,,,,,,,,,,,,,,,,,,,,,,,,,,,,,,,,,,,,,,,,,,,,,,,,,,,,,,,,,,,,,,,,,,,,,,,,,,,,,,,,001,3,2019_Jul_09_1532,viewing,3.1.2,60.00559591719767,
south.png,stims/wedding-17.1a.mp4,stims/wedding-17.1b.mp4,stims/wedding-17.2b.mp4,stims/wedding-17.3a.mp4,stims/wedding-17.4b.mp4,stims/wedding-17.5.mp4,stimsday2details/painting17.png,stimsday2details/newpainting14.png,stimsday2details/couple17.png,stimsday2details/newperson28.png,stimsday2details/gift17.png,stimsday2details/new28.png,stimsday2details/n17.png,stimsday2details/cn17.png,stimsday2details/t17.png,stimsday2details/ct17.png,0,3,3,3,,,,,,,,,0,0,0,0,,,,,,,,,,,,,,,,,,,,,2.9534418899565935,None,530.4860347959911,None,555.5526189709781,None,564.5522908029379,None,581.5532266719965,None,604.5510757629527,None,628.551819643937,None,,,,,,,,,,,,,,,,,,,,,,,,,,,,,,,,,,,,,,,,,,,,,,,,,,,,,,,,,,,,,,,,,,,,,,,,,,,,,001,3,2019_Jul_09_1532,viewing,3.1.2,60.00559591719767,
south.png,stims/wedding-17.1a.mp4,stims/wedding-17.1b.mp4,stims/wedding-17.2b.mp4,stims/wedding-17.3a.mp4,stims/wedding-17.4b.mp4,stims/wedding-17.5.mp4,stimsday2details/painting17.png,stimsday2details/newpainting14.png,stimsday2details/couple17.png,stimsday2details/newperson28.png,stimsday2details/gift17.png,stimsday2details/new28.png,stimsday2details/n17.png,stimsday2details/cn17.png,stimsday2details/t17.png,stimsday2details/ct17.png,0,3,3,3,,,,,,,,,,,,,0,0,0,0,,,,,,,,,,,,,,,,,,,,,,,,,,,,,,,None,None,None,None,None,None,None,None,None,None,None,None,None,None,None,None,None,None,None,,None,None,None,,None,None,,,,,,,,,,,,,,,,,,,,,,,,,,,,,,,,,,,,,,,,,,,,,,,,,,,001,3,2019_Jul_09_1532,viewing,3.1.2,60.00559591719767,
south.png,stims/wedding-17.1a.mp4,stims/wedding-17.1b.mp4,stims/wedding-17.2b.mp4,stims/wedding-17.3a.mp4,stims/wedding-17.4b.mp4,stims/wedding-17.5.mp4,stimsday2details/painting17.png,stimsday2details/newpainting14.png,stimsday2details/couple17.png,stimsday2details/newperson28.png,stimsday2details/gift17.png,stimsday2details/new28.png,stimsday2details/n17.png,stimsday2details/cn17.png,stimsday2details/t17.png,stimsday2details/ct17.png,0,3,3,3,,,,,,,,,,,,,,,,,,,,,,,,,,,,,,,,,,,,,,,,,,,,,,,,,,,,,,,,,,,,,,,,,,,,,,,,,4.070799332112074e-05,None,1,1.0341719429707155,652.2057505139383,None,652.2057505139383,None,652.2057505139383,None,654.2010236579226,None,1,1.6497616370907053,654.2010236579226,None,654.2010236579226,None,656.2008742119651,None,656.2008742119651,None,1,1.5344965299591422,656.2008742119651,None,1,1.1148351259762421,658.204952537897,None,658.204952537897,None,658.204952537897,None,660.2005084468983,None,660.2005084468983,None,1,0.7223077419912443,660.2005084468983,None,662.2015021519037,None,662.2015021519037,None,None,,662.2015021519037,None,001,3,2019_Jul_09_1532,viewing,3.1.2,60.00559591719767,
south.png,stims/wedding-38.1a.mp4,stims/wedding-38.1b.mp4,stims/wedding-38.2b.mp4,stims/wedding-38.3a.mp4,stims/wedding-38.4b.mp4,stims/wedding-38.5.mp4,stimsday2details/newpainting15.png,stimsday2details/painting38.png,stimsday2details/newperson29.png,stimsday2details/couple38.png,stimsday2details/new29.png,stimsday2details/gift38.png,stimsday2details/cn38.png,stimsday2details/n38.png,stimsday2details/t38.png,stimsday2details/ct38.png,0,4,4,4,0,0,0,0,,,,,,,,,,,,,,,,,,,,,,,,,664.20103835396,None,,,,,,,,,,,,,,,,,,,,,,,,,,,,,,,,,,,,,,,,,,,,,,,,,,,,,,,,,,,,,,,,,,,,,,,,,,,,,,,,,,,,,,,,,,,,,001,3,2019_Jul_09_1532,viewing,3.1.2,60.00559591719767,
south.png,stims/wedding-38.1a.mp4,stims/wedding-38.1b.mp4,stims/wedding-38.2b.mp4,stims/wedding-38.3a.mp4,stims/wedding-38.4b.mp4,stims/wedding-38.5.mp4,stimsday2details/newpainting15.png,stimsday2details/painting38.png,stimsday2details/newperson29.png,stimsday2details/couple38.png,stimsday2details/new29.png,stimsday2details/gift38.png,stimsday2details/cn38.png,stimsday2details/n38.png,stimsday2details/t38.png,stimsday2details/ct38.png,0,4,4,4,,,,,0,0,0,0,,,,,,,,,,,,,,,,,,,,,,,None,None,,,,,,,,,,,,,,,,,,,,,,,,,,,,,,,,,,,,,,,,,,,,,,,,,,,,,,,,,,,,,,,,,,,,,,,,,,,,,,,,,,,,,,,,,,,001,3,2019_Jul_09_1532,viewing,3.1.2,60.00559591719767,
south.png,stims/wedding-38.1a.mp4,stims/wedding-38.1b.mp4,stims/wedding-38.2b.mp4,stims/wedding-38.3a.mp4,stims/wedding-38.4b.mp4,stims/wedding-38.5.mp4,stimsday2details/newpainting15.png,stimsday2details/painting38.png,stimsday2details/newperson29.png,stimsday2details/couple38.png,stimsday2details/new29.png,stimsday2details/gift38.png,stimsday2details/cn38.png,stimsday2details/n38.png,stimsday2details/t38.png,stimsday2details/ct38.png,0,4,4,4,,,,,,,,,0,0,0,0,,,,,,,,,,,,,,,,,,,,,2.891835300019011,None,674.3168349849293,699.4331229089294,699.4499007249251,None,708.4506948830094,None,725.4498702730052,748.4337387259584,748.4337387259584,None,772.4501477819867,None,,,,,,,,,,,,,,,,,,,,,,,,,,,,,,,,,,,,,,,,,,,,,,,,,,,,,,,,,,,,,,,,,,,,,,,,,,,,,001,3,2019_Jul_09_1532,viewing,3.1.2,60.00559591719767,
south.png,stims/wedding-38.1a.mp4,stims/wedding-38.1b.mp4,stims/wedding-38.2b.mp4,stims/wedding-38.3a.mp4,stims/wedding-38.4b.mp4,stims/wedding-38.5.mp4,stimsday2details/newpainting15.png,stimsday2details/painting38.png,stimsday2details/newperson29.png,stimsday2details/couple38.png,stimsday2details/new29.png,stimsday2details/gift38.png,stimsday2details/cn38.png,stimsday2details/n38.png,stimsday2details/t38.png,stimsday2details/ct38.png,0,4,4,4,,,,,,,,,,,,,0,0,0,0,,,,,,,,,,,,,,,,,,,,,,,,,,,,,,,None,None,None,None,None,None,None,None,None,None,None,None,None,None,None,None,None,None,None,,None,None,None,,None,None,,,,,,,,,,,,,,,,,,,,,,,,,,,,,,,,,,,,,,,,,,,,,,,,,,,001,3,2019_Jul_09_1532,viewing,3.1.2,60.00559591719767,
south.png,stims/wedding-38.1a.mp4,stims/wedding-38.1b.mp4,stims/wedding-38.2b.mp4,stims/wedding-38.3a.mp4,stims/wedding-38.4b.mp4,stims/wedding-38.5.mp4,stimsday2details/newpainting15.png,stimsday2details/painting38.png,stimsday2details/newperson29.png,stimsday2details/couple38.png,stimsday2details/new29.png,stimsday2details/gift38.png,stimsday2details/cn38.png,stimsday2details/n38.png,stimsday2details/t38.png,stimsday2details/ct38.png,0,4,4,4,,,,,,,,,,,,,,,,,,,,,,,,,,,,,,,,,,,,,,,,,,,,,,,,,,,,,,,,,,,,,,,,,,,,,,,,,3.29379690811038e-05,None,2,0.963067289092578,796.2540924570058,None,796.2540924570058,None,796.2540924570058,None,798.248807506985,None,2,0.7516117990016937,798.248807506985,None,798.248807506985,None,800.2534671759931,None,800.2534671759931,None,2,1.0186067250324413,800.2534671759931,None,1,0.8021115839947015,802.2537968199467,None,802.2537968199467,None,802.2537968199467,None,804.2537719379179,None,804.2537719379179,None,2,0.7634367620339617,804.2537719379179,None,806.2530097669223,None,806.2530097669223,None,2,1.6020636060275137,806.2530097669223,None,001,3,2019_Jul_09_1532,viewing,3.1.2,60.00559591719767,
north.png,stims/wedding-22.1a.mp4,stims/wedding-22.1b.mp4,stims/wedding-22.2b.mp4,stims/wedding-22.3b.mp4,stims/wedding-22.4b.mp4,stims/wedding-22.5.mp4,stimsday2details/newpainting16.png,stimsday2details/painting22.png,stimsday2details/couple22.png,stimsday2details/newperson30.png,stimsday2details/gift22.png,stimsday2details/new30.png,stimsday2details/n22.png,stimsday2details/cn22.png,stimsday2details/ct22.png,stimsday2details/t22.png,0,5,5,5,0,0,0,0,,,,,,,,,,,,,,,,,,,,,,,,,None,None,,,,,,,,,,,,,,,,,,,,,,,,,,,,,,,,,,,,,,,,,,,,,,,,,,,,,,,,,,,,,,,,,,,,,,,,,,,,,,,,,,,,,,,,,,,,,001,3,2019_Jul_09_1532,viewing,3.1.2,60.00559591719767,
north.png,stims/wedding-22.1a.mp4,stims/wedding-22.1b.mp4,stims/wedding-22.2b.mp4,stims/wedding-22.3b.mp4,stims/wedding-22.4b.mp4,stims/wedding-22.5.mp4,stimsday2details/newpainting16.png,stimsday2details/painting22.png,stimsday2details/couple22.png,stimsday2details/newperson30.png,stimsday2details/gift22.png,stimsday2details/new30.png,stimsday2details/n22.png,stimsday2details/cn22.png,stimsday2details/ct22.png,stimsday2details/t22.png,0,5,5,5,,,,,0,0,0,0,,,,,,,,,,,,,,,,,,,,,,,808.382103062002,None,,,,,,,,,,,,,,,,,,,,,,,,,,,,,,,,,,,,,,,,,,,,,,,,,,,,,,,,,,,,,,,,,,,,,,,,,,,,,,,,,,,,,,,,,,,001,3,2019_Jul_09_1532,viewing,3.1.2,60.00559591719767,
north.png,stims/wedding-22.1a.mp4,stims/wedding-22.1b.mp4,stims/wedding-22.2b.mp4,stims/wedding-22.3b.mp4,stims/wedding-22.4b.mp4,stims/wedding-22.5.mp4,stimsday2details/newpainting16.png,stimsday2details/painting22.png,stimsday2details/couple22.png,stimsday2details/newperson30.png,stimsday2details/gift22.png,stimsday2details/new30.png,stimsday2details/n22.png,stimsday2details/cn22.png,stimsday2details/ct22.png,stimsday2details/t22.png,0,5,5,5,,,,,,,,,0,0,0,0,,,,,,,,,,,,,,,,,,,,,3.0341022700304165,None,818.5649377389345,843.5145614509238,843.5315159709426,None,852.5318207379896,None,869.5324827519944,892.5161311349366,892.5327486159513,None,916.5312479248969,None,,,,,,,,,,,,,,,,,,,,,,,,,,,,,,,,,,,,,,,,,,,,,,,,,,,,,,,,,,,,,,,,,,,,,,,,,,,,,001,3,2019_Jul_09_1532,viewing,3.1.2,60.00559591719767,
north.png,stims/wedding-22.1a.mp4,stims/wedding-22.1b.mp4,stims/wedding-22.2b.mp4,stims/wedding-22.3b.mp4,stims/wedding-22.4b.mp4,stims/wedding-22.5.mp4,stimsday2details/newpainting16.png,stimsday2details/painting22.png,stimsday2details/couple22.png,stimsday2details/newperson30.png,stimsday2details/gift22.png,stimsday2details/new30.png,stimsday2details/n22.png,stimsday2details/cn22.png,stimsday2details/ct22.png,stimsday2details/t22.png,0,5,5,5,,,,,,,,,,,,,0,0,0,0,,,,,,,,,,,,,,,,,,,,,,,,,,,,,,,None,None,None,None,None,None,None,None,None,None,None,None,None,None,None,None,None,None,None,,None,None,None,,None,None,,,,,,,,,,,,,,,,,,,,,,,,,,,,,,,,,,,,,,,,,,,,,,,,,,,001,3,2019_Jul_09_1532,viewing,3.1.2,60.00559591719767,
north.png,stims/wedding-22.1a.mp4,stims/wedding-22.1b.mp4,stims/wedding-22.2b.mp4,stims/wedding-22.3b.mp4,stims/wedding-22.4b.mp4,stims/wedding-22.5.mp4,stimsday2details/newpainting16.png,stimsday2details/painting22.png,stimsday2details/couple22.png,stimsday2details/newperson30.png,stimsday2details/gift22.png,stimsday2details/new30.png,stimsday2details/n22.png,stimsday2details/cn22.png,stimsday2details/ct22.png,stimsday2details/t22.png,0,5,5,5,,,,,,,,,,,,,,,,,,,,,,,,,,,,,,,,,,,,,,,,,,,,,,,,,,,,,,,,,,,,,,,,,,,,,,,,,4.326400812715292e-05,None,1,0.8504095730604604,940.31563959294,None,940.31563959294,None,940.31563959294,None,942.3136673349654,None,None,,942.3136673349654,None,942.3136673349654,None,944.3145927059231,None,944.3145927059231,None,1,0.8674231009790674,944.3145927059231,None,2,1.2059242560062557,946.3137391409837,None,946.3137391409837,None,946.3137391409837,None,948.3189808659954,None,948.3189808659954,None,1,0.6798448460176587,948.3189808659954,None,950.3181042369688,None,950.3181042369688,None,1,1.302318898960948,950.3181042369688,None,001,3,2019_Jul_09_1532,viewing,3.1.2,60.00559591719767,
north.png,stims/wedding-34.1a.mp4,stims/wedding-34.1b.mp4,stims/wedding-34.2b.mp4,stims/wedding-34.3b.mp4,stims/wedding-34.4b.mp4,stims/wedding-34.5.mp4,stimsday2details/painting34.png,stimsday2details/newpainting17.png,stimsday2details/newperson31.png,stimsday2details/couple34.png,stimsday2details/new31.png,stimsday2details/gift34.png,stimsday2details/n34.png,stimsday2details/cn34.png,stimsday2details/t34.png,stimsday2details/ct34.png,0,6,6,6,0,0,0,0,,,,,,,,,,,,,,,,,,,,,,,,,None,None,,,,,,,,,,,,,,,,,,,,,,,,,,,,,,,,,,,,,,,,,,,,,,,,,,,,,,,,,,,,,,,,,,,,,,,,,,,,,,,,,,,,,,,,,,,,,001,3,2019_Jul_09_1532,viewing,3.1.2,60.00559591719767,
north.png,stims/wedding-34.1a.mp4,stims/wedding-34.1b.mp4,stims/wedding-34.2b.mp4,stims/wedding-34.3b.mp4,stims/wedding-34.4b.mp4,stims/wedding-34.5.mp4,stimsday2details/painting34.png,stimsday2details/newpainting17.png,stimsday2details/newperson31.png,stimsday2details/couple34.png,stimsday2details/new31.png,stimsday2details/gift34.png,stimsday2details/n34.png,stimsday2details/cn34.png,stimsday2details/t34.png,stimsday2details/ct34.png,0,6,6,6,,,,,0,0,0,0,,,,,,,,,,,,,,,,,,,,,,,952.4646036279155,None,,,,,,,,,,,,,,,,,,,,,,,,,,,,,,,,,,,,,,,,,,,,,,,,,,,,,,,,,,,,,,,,,,,,,,,,,,,,,,,,,,,,,,,,,,,001,3,2019_Jul_09_1532,viewing,3.1.2,60.00559591719767,
north.png,stims/wedding-34.1a.mp4,stims/wedding-34.1b.mp4,stims/wedding-34.2b.mp4,stims/wedding-34.3b.mp4,stims/wedding-34.4b.mp4,stims/wedding-34.5.mp4,stimsday2details/painting34.png,stimsday2details/newpainting17.png,stimsday2details/newperson31.png,stimsday2details/couple34.png,stimsday2details/new31.png,stimsday2details/gift34.png,stimsday2details/n34.png,stimsday2details/cn34.png,stimsday2details/t34.png,stimsday2details/ct34.png,0,6,6,6,,,,,,,,,0,0,0,0,,,,,,,,,,,,,,,,,,,,,3.0110610800329596,None,962.647252320894,987.6298762519145,987.6465129259741,None,996.6473525098991,None,1013.6471581199439,1036.631792082917,1036.6493209699402,None,1060.6465148319257,None,,,,,,,,,,,,,,,,,,,,,,,,,,,,,,,,,,,,,,,,,,,,,,,,,,,,,,,,,,,,,,,,,,,,,,,,,,,,,001,3,2019_Jul_09_1532,viewing,3.1.2,60.00559591719767,
north.png,stims/wedding-34.1a.mp4,stims/wedding-34.1b.mp4,stims/wedding-34.2b.mp4,stims/wedding-34.3b.mp4,stims/wedding-34.4b.mp4,stims/wedding-34.5.mp4,stimsday2details/painting34.png,stimsday2details/newpainting17.png,stimsday2details/newperson31.png,stimsday2details/couple34.png,stimsday2details/new31.png,stimsday2details/gift34.png,stimsday2details/n34.png,stimsday2details/cn34.png,stimsday2details/t34.png,stimsday2details/ct34.png,0,6,6,6,,,,,,,,,,,,,0,0,0,0,,,,,,,,,,,,,,,,,,,,,,,,,,,,,,,None,None,None,None,None,None,None,None,None,None,None,None,None,None,None,None,None,None,None,,None,None,None,,None,None,,,,,,,,,,,,,,,,,,,,,,,,,,,,,,,,,,,,,,,,,,,,,,,,,,,001,3,2019_Jul_09_1532,viewing,3.1.2,60.00559591719767,
north.png,stims/wedding-34.1a.mp4,stims/wedding-34.1b.mp4,stims/wedding-34.2b.mp4,stims/wedding-34.3b.mp4,stims/wedding-34.4b.mp4,stims/wedding-34.5.mp4,stimsday2details/painting34.png,stimsday2details/newpainting17.png,stimsday2details/newperson31.png,stimsday2details/couple34.png,stimsday2details/new31.png,stimsday2details/gift34.png,stimsday2details/n34.png,stimsday2details/cn34.png,stimsday2details/t34.png,stimsday2details/ct34.png,0,6,6,6,,,,,,,,,,,,,,,,,,,,,,,,,,,,,,,,,,,,,,,,,,,,,,,,,,,,,,,,,,,,,,,,,,,,,,,,,3.4927972592413425e-05,None,1,0.7962154540000483,1084.2842943489086,None,1084.2842943489086,None,1084.2842943489086,None,1086.2792275109095,None,1,0.5848611620021984,1086.2792275109095,None,1086.2792275109095,None,1088.2784281019121,None,1088.2784281019121,None,2,0.8399767880328,1088.2784281019121,None,1,0.7179583710385486,1090.279828144936,None,1090.279828144936,None,1090.279828144936,None,1092.278681156924,None,1092.278681156924,None,2,0.7062946810619906,1092.278681156924,None,1094.2833727139514,None,1094.2833727139514,None,1,1.4170716919470578,1094.2833727139514,None,001,3,2019_Jul_09_1532,viewing,3.1.2,60.00559591719767,
south.png,stims/wedding-2.1a.mp4,stims/wedding-2.1b.mp4,stims/wedding-2.2a.mp4,stims/wedding-2.3b.mp4,stims/wedding-2.4a.mp4,stims/wedding-2.5.mp4,stimsday2details/newegg15.png,stimsday2details/egg2.png,stimsday2details/couple2.png,stimsday2details/newperson32.png,stimsday2details/new32.png,stimsday2details/gift2.png,stimsday2details/cn2.png,stimsday2details/n2.png,stimsday2details/ct2.png,stimsday2details/t2.png,0,7,7,7,0,0,0,0,,,,,,,,,,,,,,,,,,,,,,,,,1096.2782953119604,None,,,,,,,,,,,,,,,,,,,,,,,,,,,,,,,,,,,,,,,,,,,,,,,,,,,,,,,,,,,,,,,,,,,,,,,,,,,,,,,,,,,,,,,,,,,,,001,3,2019_Jul_09_1532,viewing,3.1.2,60.00559591719767,
south.png,stims/wedding-2.1a.mp4,stims/wedding-2.1b.mp4,stims/wedding-2.2a.mp4,stims/wedding-2.3b.mp4,stims/wedding-2.4a.mp4,stims/wedding-2.5.mp4,stimsday2details/newegg15.png,stimsday2details/egg2.png,stimsday2details/couple2.png,stimsday2details/newperson32.png,stimsday2details/new32.png,stimsday2details/gift2.png,stimsday2details/cn2.png,stimsday2details/n2.png,stimsday2details/ct2.png,stimsday2details/t2.png,0,7,7,7,,,,,0,0,0,0,,,,,,,,,,,,,,,,,,,,,,,None,None,,,,,,,,,,,,,,,,,,,,,,,,,,,,,,,,,,,,,,,,,,,,,,,,,,,,,,,,,,,,,,,,,,,,,,,,,,,,,,,,,,,,,,,,,,,001,3,2019_Jul_09_1532,viewing,3.1.2,60.00559591719767,
south.png,stims/wedding-2.1a.mp4,stims/wedding-2.1b.mp4,stims/wedding-2.2a.mp4,stims/wedding-2.3b.mp4,stims/wedding-2.4a.mp4,stims/wedding-2.5.mp4,stimsday2details/newegg15.png,stimsday2details/egg2.png,stimsday2details/couple2.png,stimsday2details/newperson32.png,stimsday2details/new32.png,stimsday2details/gift2.png,stimsday2details/cn2.png,stimsday2details/n2.png,stimsday2details/ct2.png,stimsday2details/t2.png,0,7,7,7,,,,,,,,,0,0,0,0,,,,,,,,,,,,,,,,,,,,,2.8971438499866053,None,1106.5289731279481,None,1131.6497682479676,None,1140.6445503738942,None,1157.6452500500018,1180.6278746658936,1180.6448861989193,None,1204.6449197289767,None,,,,,,,,,,,,,,,,,,,,,,,,,,,,,,,,,,,,,,,,,,,,,,,,,,,,,,,,,,,,,,,,,,,,,,,,,,,,,001,3,2019_Jul_09_1532,viewing,3.1.2,60.00559591719767,
south.png,stims/wedding-2.1a.mp4,stims/wedding-2.1b.mp4,stims/wedding-2.2a.mp4,stims/wedding-2.3b.mp4,stims/wedding-2.4a.mp4,stims/wedding-2.5.mp4,stimsday2details/newegg15.png,stimsday2details/egg2.png,stimsday2details/couple2.png,stimsday2details/newperson32.png,stimsday2details/new32.png,stimsday2details/gift2.png,stimsday2details/cn2.png,stimsday2details/n2.png,stimsday2details/ct2.png,stimsday2details/t2.png,0,7,7,7,,,,,,,,,,,,,0,0,0,0,,,,,,,,,,,,,,,,,,,,,,,,,,,,,,,None,None,None,None,None,None,None,None,None,None,None,None,None,None,None,None,None,None,None,,None,None,None,,None,None,,,,,,,,,,,,,,,,,,,,,,,,,,,,,,,,,,,,,,,,,,,,,,,,,,,001,3,2019_Jul_09_1532,viewing,3.1.2,60.00559591719767,
south.png,stims/wedding-2.1a.mp4,stims/wedding-2.1b.mp4,stims/wedding-2.2a.mp4,stims/wedding-2.3b.mp4,stims/wedding-2.4a.mp4,stims/wedding-2.5.mp4,stimsday2details/newegg15.png,stimsday2details/egg2.png,stimsday2details/couple2.png,stimsday2details/newperson32.png,stimsday2details/new32.png,stimsday2details/gift2.png,stimsday2details/cn2.png,stimsday2details/n2.png,stimsday2details/ct2.png,stimsday2details/t2.png,0,7,7,7,,,,,,,,,,,,,,,,,,,,,,,,,,,,,,,,,,,,,,,,,,,,,,,,,,,,,,,,,,,,,,,,,,,,,,,,,4.415307193994522e-05,None,2,0.7232417040504515,1228.5602739829337,None,1228.5602739829337,None,1228.5602739829337,None,1230.5598528030096,None,2,0.836338566034101,1230.5598528030096,None,1230.5598528030096,None,1232.5601912079146,None,1232.5601912079146,None,1,0.8059447479899973,1232.5601912079146,None,2,0.9696406850125641,1234.5600372279296,None,1234.5600372279296,None,1234.5600372279296,None,1236.5606934590032,None,1236.5606934590032,None,2,0.7908094830345362,1236.5606934590032,None,1238.561006145901,None,1238.561006145901,None,1,1.6683139230590314,1238.561006145901,None,001,3,2019_Jul_09_1532,viewing,3.1.2,60.00559591719767,
south.png,stims/wedding-29.1a.mp4,stims/wedding-29.1b.mp4,stims/wedding-29.2a.mp4,stims/wedding-29.3b.mp4,stims/wedding-29.4a.mp4,stims/wedding-29.5.mp4,stimsday2details/newegg16.png,stimsday2details/egg29.png,stimsday2details/newperson33.png,stimsday2details/couple29.png,stimsday2details/new33.png,stimsday2details/gift29.png,stimsday2details/n29.png,stimsday2details/cn29.png,stimsday2details/ct29.png,stimsday2details/t29.png,0,8,8,8,0,0,0,0,,,,,,,,,,,,,,,,,,,,,,,,,1240.5609527039342,None,,,,,,,,,,,,,,,,,,,,,,,,,,,,,,,,,,,,,,,,,,,,,,,,,,,,,,,,,,,,,,,,,,,,,,,,,,,,,,,,,,,,,,,,,,,,,001,3,2019_Jul_09_1532,viewing,3.1.2,60.00559591719767,
south.png,stims/wedding-29.1a.mp4,stims/wedding-29.1b.mp4,stims/wedding-29.2a.mp4,stims/wedding-29.3b.mp4,stims/wedding-29.4a.mp4,stims/wedding-29.5.mp4,stimsday2details/newegg16.png,stimsday2details/egg29.png,stimsday2details/newperson33.png,stimsday2details/couple29.png,stimsday2details/new33.png,stimsday2details/gift29.png,stimsday2details/n29.png,stimsday2details/cn29.png,stimsday2details/ct29.png,stimsday2details/t29.png,0,8,8,8,,,,,0,0,0,0,,,,,,,,,,,,,,,,,,,,,,,None,None,,,,,,,,,,,,,,,,,,,,,,,,,,,,,,,,,,,,,,,,,,,,,,,,,,,,,,,,,,,,,,,,,,,,,,,,,,,,,,,,,,,,,,,,,,,001,3,2019_Jul_09_1532,viewing,3.1.2,60.00559591719767,
south.png,stims/wedding-29.1a.mp4,stims/wedding-29.1b.mp4,stims/wedding-29.2a.mp4,stims/wedding-29.3b.mp4,stims/wedding-29.4a.mp4,stims/wedding-29.5.mp4,stimsday2details/newegg16.png,stimsday2details/egg29.png,stimsday2details/newperson33.png,stimsday2details/couple29.png,stimsday2details/new33.png,stimsday2details/gift29.png,stimsday2details/n29.png,stimsday2details/cn29.png,stimsday2details/ct29.png,stimsday2details/t29.png,0,8,8,8,,,,,,,,,0,0,0,0,,,,,,,,,,,,,,,,,,,,,3.0010626920266077,None,1250.9605738079408,1275.9596916110022,1275.9759422969073,None,1284.9769490259932,None,1301.9761706269346,1324.9597959319362,1324.9763898910023,None,1348.9758222309174,None,,,,,,,,,,,,,,,,,,,,,,,,,,,,,,,,,,,,,,,,,,,,,,,,,,,,,,,,,,,,,,,,,,,,,,,,,,,,,001,3,2019_Jul_09_1532,viewing,3.1.2,60.00559591719767,
south.png,stims/wedding-29.1a.mp4,stims/wedding-29.1b.mp4,stims/wedding-29.2a.mp4,stims/wedding-29.3b.mp4,stims/wedding-29.4a.mp4,stims/wedding-29.5.mp4,stimsday2details/newegg16.png,stimsday2details/egg29.png,stimsday2details/newperson33.png,stimsday2details/couple29.png,stimsday2details/new33.png,stimsday2details/gift29.png,stimsday2details/n29.png,stimsday2details/cn29.png,stimsday2details/ct29.png,stimsday2details/t29.png,0,8,8,8,,,,,,,,,,,,,0,0,0,0,,,,,,,,,,,,,,,,,,,,,,,,,,,,,,,None,None,None,None,None,None,None,None,None,None,None,None,None,None,None,None,None,None,None,,None,None,None,,None,None,,,,,,,,,,,,,,,,,,,,,,,,,,,,,,,,,,,,,,,,,,,,,,,,,,,001,3,2019_Jul_09_1532,viewing,3.1.2,60.00559591719767,
south.png,stims/wedding-29.1a.mp4,stims/wedding-29.1b.mp4,stims/wedding-29.2a.mp4,stims/wedding-29.3b.mp4,stims/wedding-29.4a.mp4,stims/wedding-29.5.mp4,stimsday2details/newegg16.png,stimsday2details/egg29.png,stimsday2details/newperson33.png,stimsday2details/couple29.png,stimsday2details/new33.png,stimsday2details/gift29.png,stimsday2details/n29.png,stimsday2details/cn29.png,stimsday2details/ct29.png,stimsday2details/t29.png,0,8,8,8,,,,,,,,,,,,,,,,,,,,,,,,,,,,,,,,,,,,,,,,,,,,,,,,,,,,,,,,,,,,,,,,,,,,,,,,,3.9933016523718834e-05,None,1,0.8474909199867398,1372.6805558279157,None,1372.6805558279157,None,1372.6805558279157,None,1374.6754174059024,None,2,0.8728929260978475,1374.6754174059024,None,1374.6754174059024,None,1376.6796713719377,None,1376.6796713719377,None,2,0.8636928170453757,1376.6796713719377,None,2,1.175901173031889,1378.6750497668982,None,1378.6750497668982,None,1378.6750497668982,None,1380.6746898469282,None,1380.6746898469282,None,2,0.8342362709809095,1380.6746898469282,None,1382.674537897925,None,1382.674537897925,None,2,1.2244232119992375,1382.674537897925,None,001,3,2019_Jul_09_1532,viewing,3.1.2,60.00559591719767,
north.png,stims/wedding-1.1a.mp4,stims/wedding-1.1b.mp4,stims/wedding-1.2b.mp4,stims/wedding-1.3b.mp4,stims/wedding-1.4b.mp4,stims/wedding-1.5.mp4,stimsday2details/newpainting18.png,stimsday2details/painting1.png,stimsday2details/couple1.png,stimsday2details/newperson34.png,stimsday2details/new34.png,stimsday2details/gift1.png,stimsday2details/n1.png,stimsday2details/cn1.png,stimsday2details/t1.png,stimsday2details/ct1.png,0,9,9,9,0,0,0,0,,,,,,,,,,,,,,,,,,,,,,,,,None,None,,,,,,,,,,,,,,,,,,,,,,,,,,,,,,,,,,,,,,,,,,,,,,,,,,,,,,,,,,,,,,,,,,,,,,,,,,,,,,,,,,,,,,,,,,,,,001,3,2019_Jul_09_1532,viewing,3.1.2,60.00559591719767,
north.png,stims/wedding-1.1a.mp4,stims/wedding-1.1b.mp4,stims/wedding-1.2b.mp4,stims/wedding-1.3b.mp4,stims/wedding-1.4b.mp4,stims/wedding-1.5.mp4,stimsday2details/newpainting18.png,stimsday2details/painting1.png,stimsday2details/couple1.png,stimsday2details/newperson34.png,stimsday2details/new34.png,stimsday2details/gift1.png,stimsday2details/n1.png,stimsday2details/cn1.png,stimsday2details/t1.png,stimsday2details/ct1.png,0,9,9,9,,,,,0,0,0,0,,,,,,,,,,,,,,,,,,,,,,,1385.0415824729716,None,,,,,,,,,,,,,,,,,,,,,,,,,,,,,,,,,,,,,,,,,,,,,,,,,,,,,,,,,,,,,,,,,,,,,,,,,,,,,,,,,,,,,,,,,,,001,3,2019_Jul_09_1532,viewing,3.1.2,60.00559591719767,
north.png,stims/wedding-1.1a.mp4,stims/wedding-1.1b.mp4,stims/wedding-1.2b.mp4,stims/wedding-1.3b.mp4,stims/wedding-1.4b.mp4,stims/wedding-1.5.mp4,stimsday2details/newpainting18.png,stimsday2details/painting1.png,stimsday2details/couple1.png,stimsday2details/newperson34.png,stimsday2details/new34.png,stimsday2details/gift1.png,stimsday2details/n1.png,stimsday2details/cn1.png,stimsday2details/t1.png,stimsday2details/ct1.png,0,9,9,9,,,,,,,,,0,0,0,0,,,,,,,,,,,,,,,,,,,,,2.9577880940632895,None,1395.2245328209829,1420.2586131748976,1420.2755124209216,None,1429.2750045189168,None,1446.2739156519528,1469.2912010469008,1469.2912010469008,1493.2577493669232,1493.273575416999,None,,,,,,,,,,,,,,,,,,,,,,,,,,,,,,,,,,,,,,,,,,,,,,,,,,,,,,,,,,,,,,,,,,,,,,,,,,,,,001,3,2019_Jul_09_1532,viewing,3.1.2,60.00559591719767,
north.png,stims/wedding-1.1a.mp4,stims/wedding-1.1b.mp4,stims/wedding-1.2b.mp4,stims/wedding-1.3b.mp4,stims/wedding-1.4b.mp4,stims/wedding-1.5.mp4,stimsday2details/newpainting18.png,stimsday2details/painting1.png,stimsday2details/couple1.png,stimsday2details/newperson34.png,stimsday2details/new34.png,stimsday2details/gift1.png,stimsday2details/n1.png,stimsday2details/cn1.png,stimsday2details/t1.png,stimsday2details/ct1.png,0,9,9,9,,,,,,,,,,,,,0,0,0,0,,,,,,,,,,,,,,,,,,,,,,,,,,,,,,,None,None,None,None,None,None,None,None,None,None,None,None,None,None,None,None,None,None,None,,None,None,None,,None,None,,,,,,,,,,,,,,,,,,,,,,,,,,,,,,,,,,,,,,,,,,,,,,,,,,,001,3,2019_Jul_09_1532,viewing,3.1.2,60.00559591719767,
north.png,stims/wedding-1.1a.mp4,stims/wedding-1.1b.mp4,stims/wedding-1.2b.mp4,stims/wedding-1.3b.mp4,stims/wedding-1.4b.mp4,stims/wedding-1.5.mp4,stimsday2details/newpainting18.png,stimsday2details/painting1.png,stimsday2details/couple1.png,stimsday2details/newperson34.png,stimsday2details/new34.png,stimsday2details/gift1.png,stimsday2details/n1.png,stimsday2details/cn1.png,stimsday2details/t1.png,stimsday2details/ct1.png,0,9,9,9,,,,,,,,,,,,,,,,,,,,,,,,,,,,,,,,,,,,,,,,,,,,,,,,,,,,,,,,,,,,,,,,,,,,,,,,,4.5945984311401844e-05,None,1,0.7695490580517799,1517.1897497460013,None,1517.1897497460013,None,1517.1897497460013,None,1519.1732592599,None,2,0.9022393180057406,1519.1732592599,None,1519.1732592599,None,1521.1775221369462,None,1521.1775221369462,None,1,0.8522153169615194,1521.1775221369462,None,1,0.7725489770527929,1523.1738904929953,None,1523.1738904929953,None,1523.1738904929953,None,1525.173129569972,None,1525.173129569972,None,2,1.0401232340373099,1525.173129569972,None,1527.1730713669676,None,1527.1730713669676,None,1,1.1900453639682382,1527.1730713669676,None,001,3,2019_Jul_09_1532,viewing,3.1.2,60.00559591719767,
north.png,stims/wedding-19.1a.mp4,stims/wedding-19.1b.mp4,stims/wedding-19.2a.mp4,stims/wedding-19.3a.mp4,stims/wedding-19.4a.mp4,stims/wedding-19.5.mp4,stimsday2details/egg19.png,stimsday2details/newegg17.png,stimsday2details/couple19.png,stimsday2details/newperson35.png,stimsday2details/new35.png,stimsday2details/gift19.png,stimsday2details/n19.png,stimsday2details/cn19.png,stimsday2details/ct19.png,stimsday2details/t19.png,0,10,10,10,0,0,0,0,,,,,,,,,,,,,,,,,,,,,,,,,None,None,,,,,,,,,,,,,,,,,,,,,,,,,,,,,,,,,,,,,,,,,,,,,,,,,,,,,,,,,,,,,,,,,,,,,,,,,,,,,,,,,,,,,,,,,,,,,001,3,2019_Jul_09_1532,viewing,3.1.2,60.00559591719767,
north.png,stims/wedding-19.1a.mp4,stims/wedding-19.1b.mp4,stims/wedding-19.2a.mp4,stims/wedding-19.3a.mp4,stims/wedding-19.4a.mp4,stims/wedding-19.5.mp4,stimsday2details/egg19.png,stimsday2details/newegg17.png,stimsday2details/couple19.png,stimsday2details/newperson35.png,stimsday2details/new35.png,stimsday2details/gift19.png,stimsday2details/n19.png,stimsday2details/cn19.png,stimsday2details/ct19.png,stimsday2details/t19.png,0,10,10,10,,,,,0,0,0,0,,,,,,,,,,,,,,,,,,,,,,,1529.423708659946,None,,,,,,,,,,,,,,,,,,,,,,,,,,,,,,,,,,,,,,,,,,,,,,,,,,,,,,,,,,,,,,,,,,,,,,,,,,,,,,,,,,,,,,,,,,,001,3,2019_Jul_09_1532,viewing,3.1.2,60.00559591719767,
north.png,stims/wedding-19.1a.mp4,stims/wedding-19.1b.mp4,stims/wedding-19.2a.mp4,stims/wedding-19.3a.mp4,stims/wedding-19.4a.mp4,stims/wedding-19.5.mp4,stimsday2details/egg19.png,stimsday2details/newegg17.png,stimsday2details/couple19.png,stimsday2details/newperson35.png,stimsday2details/new35.png,stimsday2details/gift19.png,stimsday2details/n19.png,stimsday2details/cn19.png,stimsday2details/ct19.png,stimsday2details/t19.png,0,10,10,10,,,,,,,,,0,0,0,0,,,,,,,,,,,,,,,,,,,,,3.05447513400577,None,1539.7236367099686,1564.6586501409765,1564.6752436349634,None,1573.6725626819534,1590.675897427951,1590.675897427951,1613.6719744609436,1613.6719744609436,None,1637.671614840976,None,,,,,,,,,,,,,,,,,,,,,,,,,,,,,,,,,,,,,,,,,,,,,,,,,,,,,,,,,,,,,,,,,,,,,,,,,,,,,001,3,2019_Jul_09_1532,viewing,3.1.2,60.00559591719767,
north.png,stims/wedding-19.1a.mp4,stims/wedding-19.1b.mp4,stims/wedding-19.2a.mp4,stims/wedding-19.3a.mp4,stims/wedding-19.4a.mp4,stims/wedding-19.5.mp4,stimsday2details/egg19.png,stimsday2details/newegg17.png,stimsday2details/couple19.png,stimsday2details/newperson35.png,stimsday2details/new35.png,stimsday2details/gift19.png,stimsday2details/n19.png,stimsday2details/cn19.png,stimsday2details/ct19.png,stimsday2details/t19.png,0,10,10,10,,,,,,,,,,,,,0,0,0,0,,,,,,,,,,,,,,,,,,,,,,,,,,,,,,,None,None,None,None,None,None,None,None,None,None,None,None,None,None,None,None,None,None,None,,None,None,None,,None,None,,,,,,,,,,,,,,,,,,,,,,,,,,,,,,,,,,,,,,,,,,,,,,,,,,,001,3,2019_Jul_09_1532,viewing,3.1.2,60.00559591719767,
north.png,stims/wedding-19.1a.mp4,stims/wedding-19.1b.mp4,stims/wedding-19.2a.mp4,stims/wedding-19.3a.mp4,stims/wedding-19.4a.mp4,stims/wedding-19.5.mp4,stimsday2details/egg19.png,stimsday2details/newegg17.png,stimsday2details/couple19.png,stimsday2details/newperson35.png,stimsday2details/new35.png,stimsday2details/gift19.png,stimsday2details/n19.png,stimsday2details/cn19.png,stimsday2details/ct19.png,stimsday2details/t19.png,0,10,10,10,,,,,,,,,,,,,,,,,,,,,,,,,,,,,,,,,,,,,,,,,,,,,,,,,,,,,,,,,,,,,,,,,,,,,,,,,2.6851077564060688e-05,None,1,0.6855017479974777,1662.2885284950025,None,1662.2885284950025,None,1662.2885284950025,None,1664.2720214199508,None,1,0.6877915059449151,1664.2720214199508,None,1664.2720214199508,None,1666.275790237938,None,1666.275790237938,None,1,0.5981491389684379,1666.275790237938,None,2,0.9020346400793642,1668.2713113019709,None,1668.2713113019709,None,1668.2713113019709,None,1670.2724360369612,None,1670.2724360369612,None,2,0.8388787930598482,1670.2724360369612,None,1672.2721195699414,None,1672.2721195699414,None,1,1.4184741580393165,1672.2721195699414,None,001,3,2019_Jul_09_1532,viewing,3.1.2,60.00559591719767,
south.png,stims/wedding-28.1a.mp4,stims/wedding-28.1b.mp4,stims/wedding-28.2a.mp4,stims/wedding-28.3b.mp4,stims/wedding-28.4a.mp4,stims/wedding-28.5.mp4,stimsday2details/egg28.png,stimsday2details/newegg18.png,stimsday2details/couple28.png,stimsday2details/newperson36.png,stimsday2details/gift28.png,stimsday2details/new36.png,stimsday2details/n28.png,stimsday2details/cn28.png,stimsday2details/t28.png,stimsday2details/ct28.png,0,11,11,11,0,0,0,0,,,,,,,,,,,,,,,,,,,,,,,,,1674.2718562139198,None,,,,,,,,,,,,,,,,,,,,,,,,,,,,,,,,,,,,,,,,,,,,,,,,,,,,,,,,,,,,,,,,,,,,,,,,,,,,,,,,,,,,,,,,,,,,,001,3,2019_Jul_09_1532,viewing,3.1.2,60.00559591719767,
south.png,stims/wedding-28.1a.mp4,stims/wedding-28.1b.mp4,stims/wedding-28.2a.mp4,stims/wedding-28.3b.mp4,stims/wedding-28.4a.mp4,stims/wedding-28.5.mp4,stimsday2details/egg28.png,stimsday2details/newegg18.png,stimsday2details/couple28.png,stimsday2details/newperson36.png,stimsday2details/gift28.png,stimsday2details/new36.png,stimsday2details/n28.png,stimsday2details/cn28.png,stimsday2details/t28.png,stimsday2details/ct28.png,0,11,11,11,,,,,0,0,0,0,,,,,,,,,,,,,,,,,,,,,,,None,None,,,,,,,,,,,,,,,,,,,,,,,,,,,,,,,,,,,,,,,,,,,,,,,,,,,,,,,,,,,,,,,,,,,,,,,,,,,,,,,,,,,,,,,,,,,001,3,2019_Jul_09_1532,viewing,3.1.2,60.00559591719767,
south.png,stims/wedding-28.1a.mp4,stims/wedding-28.1b.mp4,stims/wedding-28.2a.mp4,stims/wedding-28.3b.mp4,stims/wedding-28.4a.mp4,stims/wedding-28.5.mp4,stimsday2details/egg28.png,stimsday2details/newegg18.png,stimsday2details/couple28.png,stimsday2details/newperson36.png,stimsday2details/gift28.png,stimsday2details/new36.png,stimsday2details/n28.png,stimsday2details/cn28.png,stimsday2details/t28.png,stimsday2details/ct28.png,0,11,11,11,,,,,,,,,0,0,0,0,,,,,,,,,,,,,,,,,,,,,None,None,None,None,None,None,None,None,None,None,None,None,None,None,,,,,,,,,,,,,,,,,,,,,,,,,,,,,,,,,,,,,,,,,,,,,,,,,,,,,,,,,,,,,,,,,,,,,,,,,,,,,001,3,2019_Jul_09_1532,viewing,3.1.2,60.00559591719767,
south.png,stims/wedding-28.1a.mp4,stims/wedding-28.1b.mp4,stims/wedding-28.2a.mp4,stims/wedding-28.3b.mp4,stims/wedding-28.4a.mp4,stims/wedding-28.5.mp4,stimsday2details/egg28.png,stimsday2details/newegg18.png,stimsday2details/couple28.png,stimsday2details/newperson36.png,stimsday2details/gift28.png,stimsday2details/new36.png,stimsday2details/n28.png,stimsday2details/cn28.png,stimsday2details/t28.png,stimsday2details/ct28.png,0,11,11,11,,,,,,,,,,,,,0,0,0,0,,,,,,,,,,,,,,,,,,,,,,,,,,,,,,,3.0086952559649944,None,1688.155257706996,1713.1538689339068,1713.1708296709694,None,1722.1721208909294,1739.158000930911,1739.1706740229856,1743.1584189129062,1743.1584189129062,1766.1538167329272,1766.1744055229938,1770.1539310789667,1770.1708155199885,1794.1530376139563,1794.1707331999205,None,['1'],[3.840302587952465],1738.1710745459422,1743.1584189129062,['1'],[2.034828609903343],1765.170611950918,1770.1539310789667,,,,,,,,,,,,,,,,,,,,,,,,,,,,,,,,,,,,,,,,,,,,,,,,,,,001,3,2019_Jul_09_1532,viewing,3.1.2,60.00559591719767,
south.png,stims/wedding-28.1a.mp4,stims/wedding-28.1b.mp4,stims/wedding-28.2a.mp4,stims/wedding-28.3b.mp4,stims/wedding-28.4a.mp4,stims/wedding-28.5.mp4,stimsday2details/egg28.png,stimsday2details/newegg18.png,stimsday2details/couple28.png,stimsday2details/newperson36.png,stimsday2details/gift28.png,stimsday2details/new36.png,stimsday2details/n28.png,stimsday2details/cn28.png,stimsday2details/t28.png,stimsday2details/ct28.png,0,11,11,11,,,,,,,,,,,,,,,,,,,,,,,,,,,,,,,,,,,,,,,,,,,,,,,,,,,,,,,,,,,,,,,,,,,,,,,,,3.525707870721817e-05,None,1,1.068358895019628,1815.5202828350011,None,1815.5202828350011,None,1815.5202828350011,None,1817.508293277002,None,1,0.6131155870389193,1817.508293277002,None,1817.508293277002,None,1819.5033472009236,None,1819.5033472009236,None,1,0.6346103569958359,1819.5033472009236,None,1,0.7859870688989758,1821.5027805919526,None,1821.5027805919526,None,1821.5027805919526,None,1823.5068437659647,None,1823.5068437659647,None,1,0.7523662790190428,1823.5068437659647,None,1825.5069502789993,None,1825.5069502789993,None,2,1.5023683679755777,1825.5069502789993,None,001,3,2019_Jul_09_1532,viewing,3.1.2,60.00559591719767,
