condsFile,northOrSouth,stimFile1a,stimFile1b,stimFile2,stimFile3,stimFile4,stimFile5,QeggPainting1,Qcharacter1,Qgift1,QeggPainting2,Qcharacter2,Qgift2,Qname1,Qtheme1,Qname2,Qtheme2,block.thisRepN,block.thisTrialN,block.thisN,block.thisIndex,trials.thisRepN,trials.thisTrialN,trials.thisN,trials.thisIndex,noQtrials.thisRepN,noQtrials.thisTrialN,noQtrials.thisN,noQtrials.thisIndex,Qtrials.thisRepN,Qtrials.thisTrialN,Qtrials.thisN,Qtrials.thisIndex,text.started,text.stopped,prep_trigger.keys,prep_trigger.rt,prep_trigger.started,prep_trigger.stopped,waiting.started,waiting.stopped,trigger.keys,trigger.rt,trigger.started,trigger.stopped,image_2.started,image_2.stopped,trialNoQs.started,trialNoQs.stopped,vid1a.started,vid1a.stopped,vid1b.started,vid1b.stopped,vid2.started,vid2.stopped,vid3.started,vid3.stopped,vid4.started,vid4.stopped,vid5.started,vid5.stopped,image.started,image.stopped,ISI2.started,ISI2.stopped,vid1a_q.started,vid1a_q.stopped,vid1b_q.started,vid1b_q.stopped,vid2_q.started,vid2_q.stopped,l2q.started,l2q.stopped,vid3_q.started,vid3_q.stopped,l3q.started,l3q.stopped,vid4_q.started,vid4_q.stopped,vid5_q.started,vid5_q.stopped,key_resp_2.keys,key_resp_2.rt,key_resp_2.started,key_resp_2.stopped,key_resp_3.keys,key_resp_3.rt,key_resp_3.started,key_resp_3.stopped,reveal.started,reveal.stopped,ISI7.started,ISI7.stopped,nameQresp.keys,nameQresp.rt,nameQresp.started,nameQresp.stopped,nameQ1.started,nameQ1.stopped,nameQ2.started,nameQ2.stopped,eggPainting1.started,eggPainting1.stopped,eggPaintingQresp.keys,eggPaintingQresp.rt,eggPaintingQresp.started,eggPaintingQresp.stopped,eggPainting2.started,eggPainting2.stopped,character1.started,character1.stopped,character2.started,character2.stopped,Qcharacter.keys,Qcharacter.rt,Qcharacter.started,Qcharacter.stopped,themeQresp.keys,themeQresp.rt,themeQresp.started,themeQresp.stopped,themeQ1.started,themeQ1.stopped,themeQ2.started,themeQ2.stopped,gift1.started,gift1.stopped,gift2.started,gift2.stopped,giftQresp.keys,giftQresp.rt,giftQresp.started,giftQresp.stopped,northorsouth1.started,northorsouth1.stopped,northOrSouthQ.keys,northOrSouthQ.started,northOrSouthQ.stopped,northorsouth2.started,northorsouth2.stopped,northOrSouthQ.rt,session,participant,date,expName,psychopyVersion,frameRate,
,,,,,,,,,,,,,,,,,,,,,,,,,,,,,,,,,,6.915819729969371,None,g,1.1170692410087213,6.915819729969371,None,,,,,,,,,,,,,,,,,,,,,,,,,,,,,,,,,,,,,,,,,,,,,,,,,,,,,,,,,,,,,,,,,,,,,,,,,,,,,,,,,,,,,,,,,,,,,,,,,,,,,,,001,19,2019_Sep_30_1053,Block2,3.1.2,60.02625139865506,
,,,,,,,,,,,,,,,,,,,,,,,,,,,,,,,,,,,,,,,,8.0491989699658,None,equal,22.468688316992484,8.0491989699658,None,,,,,,,,,,,,,,,,,,,,,,,,,,,,,,,,,,,,,,,,,,,,,,,,,,,,,,,,,,,,,,,,,,,,,,,,,,,,,,,,,,,,,,,,,,,,,,,,,001,19,2019_Sep_30_1053,Block2,3.1.2,60.02625139865506,
videoBlock_schemaS_pathB_6.csv,south.png,stims/wedding-37.1a.mp4,stims/wedding-37.1b.mp4,stims/wedding-37.2b.mp4,stims/wedding-37.3a.mp4,stims/wedding-37.4b.mp4,stims/wedding-37.5.mp4,stimsday1details/painting37.png,stimsday1details/couple37.png,stimsday1details/gift37.png,stimsday1details/newpainting12.png,stimsday1details/newperson24.png,stimsday1details/new24.png,stimsday1details/n37.png,stimsday1details/t37.png,stimsday1details/cn37.png,stimsday1details/ct37.png,0,0,0,5,0,0,0,0,0,0,0,0,,,,,,,,,,,,,,,,,30.551780939975288,None,None,None,None,None,None,None,None,None,None,None,None,None,None,None,None,None,,,,,,,,,,,,,,,,,,,,,,,,,,,,,,,,,,,,,,,,,,,,,,,,,,,,,,,,,,,,,,,,,,,,,,,,,,,,,,,001,19,2019_Sep_30_1053,Block2,3.1.2,60.02625139865506,
videoBlock_schemaS_pathB_6.csv,south.png,stims/wedding-37.1a.mp4,stims/wedding-37.1b.mp4,stims/wedding-37.2b.mp4,stims/wedding-37.3a.mp4,stims/wedding-37.4b.mp4,stims/wedding-37.5.mp4,stimsday1details/painting37.png,stimsday1details/couple37.png,stimsday1details/gift37.png,stimsday1details/newpainting12.png,stimsday1details/newperson24.png,stimsday1details/new24.png,stimsday1details/n37.png,stimsday1details/t37.png,stimsday1details/cn37.png,stimsday1details/ct37.png,0,0,0,5,0,0,0,0,,,,,0,0,0,0,,,,,,,,,,,,,,,,,,,,,,,,,,,,,,,2.516948774980847,None,42.28347245400073,None,65.2819548890111,None,74.28171486599604,None,91.28149735601619,95.26477972697467,95.28144697501557,None,118.28115796099883,122.26444448798429,122.28111791302217,None,146.28082881198497,None,['1'],[2.4023544139927253],90.28148752101697,95.26477972697467,"['1', '2']","[79.49159745901125, 3.018927638011519]",117.28118067298783,122.26444448798429,42.28347245400073,42.28347245400073,,,,,,,,,,,,,,,,,,,,,,,,,,,,,,,,,,,,,,,,,,,,,,,,,,,001,19,2019_Sep_30_1053,Block2,3.1.2,60.02625139865506,
videoBlock_schemaS_pathB_6.csv,south.png,stims/wedding-37.1a.mp4,stims/wedding-37.1b.mp4,stims/wedding-37.2b.mp4,stims/wedding-37.3a.mp4,stims/wedding-37.4b.mp4,stims/wedding-37.5.mp4,stimsday1details/painting37.png,stimsday1details/couple37.png,stimsday1details/gift37.png,stimsday1details/newpainting12.png,stimsday1details/newperson24.png,stimsday1details/new24.png,stimsday1details/n37.png,stimsday1details/t37.png,stimsday1details/cn37.png,stimsday1details/ct37.png,0,0,0,5,0,0,0,0,,,,,,,,,,,,,,,,,,,,,,,,,,,,,,,,,,,,,,,,,,,,,,,,,,,,,,,,,,,,,,,,,,,2.913299249485135e-05,None,1,1.2170743880560622,160.84727500396548,None,160.84727500396548,None,160.84727500396548,None,162.83060880098492,None,1,0.9518778499914333,162.83060880098492,None,162.83060880098492,None,164.8305810589809,None,164.8305810589809,None,1,0.985104898980353,164.8305810589809,None,1,0.8853391059674323,166.8305025199661,None,166.8305025199661,None,166.8305025199661,None,168.8304704449838,None,168.8304704449838,None,1,1.0339049500180408,168.8304704449838,None,170.83045285800472,None,None,170.83045285800472,None,170.83045285800472,None,,001,19,2019_Sep_30_1053,Block2,3.1.2,60.02625139865506,
videoBlock_schemaS_pathB_5.csv,south.png,stims/wedding-31.1a.mp4,stims/wedding-31.1b.mp4,stims/wedding-31.2b.mp4,stims/wedding-31.3a.mp4,stims/wedding-31.4b.mp4,stims/wedding-31.5.mp4,stimsday1details/painting31.png,stimsday1details/couple31.png,stimsday1details/gift31.png,stimsday1details/newpainting11.png,stimsday1details/newperson23.png,stimsday1details/new23.png,stimsday1details/cn31.png,stimsday1details/ct31.png,stimsday1details/n31.png,stimsday1details/t31.png,0,1,1,4,0,0,0,0,0,0,0,0,,,,,,,,,,,,,,,,,173.01381316699553,None,2.754174639005214,None,182.263789492019,205.0134143109899,205.03007690201048,214.0132391700172,214.0299124600133,None,231.02975484600756,254.01280357700307,254.0295101350057,278.01250572298886,278.0291727579897,None,182.263789492019,182.263789492019,,,,,,,,,,,,,,,,,,,,,,,,,,,,,,,,,,,,,,,,,,,,,,,,,,,,,,,,,,,,,,,,,,,,,,,,,,,,,,,001,19,2019_Sep_30_1053,Block2,3.1.2,60.02625139865506,
videoBlock_schemaS_pathB_5.csv,south.png,stims/wedding-31.1a.mp4,stims/wedding-31.1b.mp4,stims/wedding-31.2b.mp4,stims/wedding-31.3a.mp4,stims/wedding-31.4b.mp4,stims/wedding-31.5.mp4,stimsday1details/painting31.png,stimsday1details/couple31.png,stimsday1details/gift31.png,stimsday1details/newpainting11.png,stimsday1details/newperson23.png,stimsday1details/new23.png,stimsday1details/cn31.png,stimsday1details/ct31.png,stimsday1details/n31.png,stimsday1details/t31.png,0,1,1,4,0,0,0,0,,,,,0,0,0,0,,,,,,,,,,,,,,,,,,,,,,,,,,,,,,,None,None,None,None,None,None,None,None,None,None,None,None,None,None,None,None,None,None,None,,None,None,None,,None,None,None,None,,,,,,,,,,,,,,,,,,,,,,,,,,,,,,,,,,,,,,,,,,,,,,,,,,,001,19,2019_Sep_30_1053,Block2,3.1.2,60.02625139865506,
videoBlock_schemaS_pathB_5.csv,south.png,stims/wedding-31.1a.mp4,stims/wedding-31.1b.mp4,stims/wedding-31.2b.mp4,stims/wedding-31.3a.mp4,stims/wedding-31.4b.mp4,stims/wedding-31.5.mp4,stimsday1details/painting31.png,stimsday1details/couple31.png,stimsday1details/gift31.png,stimsday1details/newpainting11.png,stimsday1details/newperson23.png,stimsday1details/new23.png,stimsday1details/cn31.png,stimsday1details/ct31.png,stimsday1details/n31.png,stimsday1details/t31.png,0,1,1,4,0,0,0,0,,,,,,,,,,,,,,,,,,,,,,,,,,,,,,,,,,,,,,,,,,,,,,,,,,,,,,,,,,,,,,,,,,,2.8170004952698946e-05,None,1,1.7521039540297352,295.0623645730084,None,295.0623645730084,None,295.0623645730084,None,297.0456024609739,None,1,0.7017507640412077,297.0456024609739,None,297.0456024609739,None,299.0455802680226,None,299.0455802680226,None,1,1.0018962050089613,299.0455802680226,None,2,1.1183974089799449,301.0455544000142,None,301.0455544000142,None,301.0455544000142,None,303.0455478740041,None,303.0455478740041,None,1,1.168488220020663,303.0455478740041,None,305.0455021499656,None,None,305.0455021499656,None,305.0455021499656,None,,001,19,2019_Sep_30_1053,Block2,3.1.2,60.02625139865506,
videoBlock_schemaS_pathA_5.csv,south.png,stims/wedding-26.1a.mp4,stims/wedding-26.1b.mp4,stims/wedding-26.2a.mp4,stims/wedding-26.3b.mp4,stims/wedding-26.4a.mp4,stims/wedding-26.5.mp4,stimsday1details/egg26.png,stimsday1details/couple26.png,stimsday1details/gift26.png,stimsday1details/newegg11.png,stimsday1details/newperson11.png,stimsday1details/new11.png,stimsday1details/cn26.png,stimsday1details/ct26.png,stimsday1details/n26.png,stimsday1details/t26.png,0,2,2,1,0,0,0,0,0,0,0,0,,,,,,,,,,,,,,,,,307.26214103901293,None,2.8484116150066257,None,316.6119681209675,None,339.27840913197724,348.2616277859779,348.2783429310075,None,365.27807206998114,388.26113191997865,388.2778057109681,412.2608338079881,412.27750338899205,None,316.6119681209675,316.6119681209675,,,,,,,,,,,,,,,,,,,,,,,,,,,,,,,,,,,,,,,,,,,,,,,,,,,,,,,,,,,,,,,,,,,,,,,,,,,,,,,001,19,2019_Sep_30_1053,Block2,3.1.2,60.02625139865506,
videoBlock_schemaS_pathA_5.csv,south.png,stims/wedding-26.1a.mp4,stims/wedding-26.1b.mp4,stims/wedding-26.2a.mp4,stims/wedding-26.3b.mp4,stims/wedding-26.4a.mp4,stims/wedding-26.5.mp4,stimsday1details/egg26.png,stimsday1details/couple26.png,stimsday1details/gift26.png,stimsday1details/newegg11.png,stimsday1details/newperson11.png,stimsday1details/new11.png,stimsday1details/cn26.png,stimsday1details/ct26.png,stimsday1details/n26.png,stimsday1details/t26.png,0,2,2,1,0,0,0,0,,,,,0,0,0,0,,,,,,,,,,,,,,,,,,,,,,,,,,,,,,,None,None,None,None,None,None,None,None,None,None,None,None,None,None,None,None,None,None,None,,None,None,None,,None,None,None,None,,,,,,,,,,,,,,,,,,,,,,,,,,,,,,,,,,,,,,,,,,,,,,,,,,,001,19,2019_Sep_30_1053,Block2,3.1.2,60.02625139865506,
videoBlock_schemaS_pathA_5.csv,south.png,stims/wedding-26.1a.mp4,stims/wedding-26.1b.mp4,stims/wedding-26.2a.mp4,stims/wedding-26.3b.mp4,stims/wedding-26.4a.mp4,stims/wedding-26.5.mp4,stimsday1details/egg26.png,stimsday1details/couple26.png,stimsday1details/gift26.png,stimsday1details/newegg11.png,stimsday1details/newperson11.png,stimsday1details/new11.png,stimsday1details/cn26.png,stimsday1details/ct26.png,stimsday1details/n26.png,stimsday1details/t26.png,0,2,2,1,0,0,0,0,,,,,,,,,,,,,,,,,,,,,,,,,,,,,,,,,,,,,,,,,,,,,,,,,,,,,,,,,,,,,,,,,,,2.825201954692602e-05,None,2,1.3020137469866313,430.0272868250031,None,430.0272868250031,None,430.0272868250031,None,432.02719642897137,None,1,0.8503294070251286,432.02719642897137,None,432.02719642897137,None,434.02722277498106,None,434.02722277498106,None,1,0.7020434319856577,434.02722277498106,None,2,0.868539429968223,436.0271989169996,None,436.0271989169996,None,436.0271989169996,None,438.0271736640134,None,438.0271736640134,None,1,1.6350825150148012,438.0271736640134,None,440.02715097001055,None,None,440.02715097001055,None,440.02715097001055,None,,001,19,2019_Sep_30_1053,Block2,3.1.2,60.02625139865506,
videoBlock_schemaS_pathA_6.csv,south.png,stims/wedding-30.1a.mp4,stims/wedding-30.1b.mp4,stims/wedding-30.2a.mp4,stims/wedding-30.3b.mp4,stims/wedding-30.4a.mp4,stims/wedding-30.5.mp4,stimsday1details/newegg12.png,stimsday1details/couple30.png,stimsday1details/new12.png,stimsday1details/egg30.png,stimsday1details/newperson12.png,stimsday1details/gift30.png,stimsday1details/n30.png,stimsday1details/t30.png,stimsday1details/cn30.png,stimsday1details/ct30.png,0,3,3,2,0,0,0,0,0,0,0,0,,,,,,,,,,,,,,,,,442.27712491399143,None,2.8809916370082647,None,451.66034169198247,474.2767228700104,474.2933982849936,None,483.2932627060218,500.2763999889721,500.2931720559718,523.2761173010222,523.2929406489711,547.2758209360181,547.2924750309903,None,451.66034169198247,451.66034169198247,,,,,,,,,,,,,,,,,,,,,,,,,,,,,,,,,,,,,,,,,,,,,,,,,,,,,,,,,,,,,,,,,,,,,,,,,,,,,,,001,19,2019_Sep_30_1053,Block2,3.1.2,60.02625139865506,
videoBlock_schemaS_pathA_6.csv,south.png,stims/wedding-30.1a.mp4,stims/wedding-30.1b.mp4,stims/wedding-30.2a.mp4,stims/wedding-30.3b.mp4,stims/wedding-30.4a.mp4,stims/wedding-30.5.mp4,stimsday1details/newegg12.png,stimsday1details/couple30.png,stimsday1details/new12.png,stimsday1details/egg30.png,stimsday1details/newperson12.png,stimsday1details/gift30.png,stimsday1details/n30.png,stimsday1details/t30.png,stimsday1details/cn30.png,stimsday1details/ct30.png,0,3,3,2,0,0,0,0,,,,,0,0,0,0,,,,,,,,,,,,,,,,,,,,,,,,,,,,,,,None,None,None,None,None,None,None,None,None,None,None,None,None,None,None,None,None,None,None,,None,None,None,,None,None,None,None,,,,,,,,,,,,,,,,,,,,,,,,,,,,,,,,,,,,,,,,,,,,,,,,,,,001,19,2019_Sep_30_1053,Block2,3.1.2,60.02625139865506,
videoBlock_schemaS_pathA_6.csv,south.png,stims/wedding-30.1a.mp4,stims/wedding-30.1b.mp4,stims/wedding-30.2a.mp4,stims/wedding-30.3b.mp4,stims/wedding-30.4a.mp4,stims/wedding-30.5.mp4,stimsday1details/newegg12.png,stimsday1details/couple30.png,stimsday1details/new12.png,stimsday1details/egg30.png,stimsday1details/newperson12.png,stimsday1details/gift30.png,stimsday1details/n30.png,stimsday1details/t30.png,stimsday1details/cn30.png,stimsday1details/ct30.png,0,3,3,2,0,0,0,0,,,,,,,,,,,,,,,,,,,,,,,,,,,,,,,,,,,,,,,,,,,,,,,,,,,,,,,,,,,,,,,,,,,3.985903458669782e-05,None,1,0.8523839099798352,564.8922679459793,None,564.8922679459793,None,564.8922679459793,None,566.8755745979724,None,2,0.9683276480063796,566.8755745979724,None,566.8755745979724,None,568.8755442620022,None,568.8755442620022,None,1,0.9189576409989968,568.8755442620022,None,1,1.5858515379950404,570.8755223570042,None,570.8755223570042,None,570.8755223570042,None,572.875506309967,None,572.875506309967,None,2,0.9018213370000012,572.875506309967,None,574.8754123749677,None,None,574.8754123749677,None,574.8754123749677,None,,001,19,2019_Sep_30_1053,Block2,3.1.2,60.02625139865506,
videoBlock_schemaS_pathA_4.csv,south.png,stims/wedding-21.1a.mp4,stims/wedding-21.1b.mp4,stims/wedding-21.2a.mp4,stims/wedding-21.3b.mp4,stims/wedding-21.4a.mp4,stims/wedding-21.5.mp4,stimsday1details/egg21.png,stimsday1details/newperson10.png,stimsday1details/gift21.png,stimsday1details/newegg10.png,stimsday1details/couple21.png,stimsday1details/new10.png,stimsday1details/n21.png,stimsday1details/ct21.png,stimsday1details/cn21.png,stimsday1details/t21.png,0,4,4,0,0,0,0,0,0,0,0,0,,,,,,,,,,,,,,,,,577.1587370070047,None,2.835592854011338,None,586.4947574629914,609.1750593740144,609.1917187689687,None,618.1750455310103,635.1580527659971,635.1747279909905,658.157783208997,658.1744392659748,682.1574868789758,682.1741401790059,None,586.4947574629914,586.4947574629914,,,,,,,,,,,,,,,,,,,,,,,,,,,,,,,,,,,,,,,,,,,,,,,,,,,,,,,,,,,,,,,,,,,,,,,,,,,,,,,001,19,2019_Sep_30_1053,Block2,3.1.2,60.02625139865506,
videoBlock_schemaS_pathA_4.csv,south.png,stims/wedding-21.1a.mp4,stims/wedding-21.1b.mp4,stims/wedding-21.2a.mp4,stims/wedding-21.3b.mp4,stims/wedding-21.4a.mp4,stims/wedding-21.5.mp4,stimsday1details/egg21.png,stimsday1details/newperson10.png,stimsday1details/gift21.png,stimsday1details/newegg10.png,stimsday1details/couple21.png,stimsday1details/new10.png,stimsday1details/n21.png,stimsday1details/ct21.png,stimsday1details/cn21.png,stimsday1details/t21.png,0,4,4,0,0,0,0,0,,,,,0,0,0,0,,,,,,,,,,,,,,,,,,,,,,,,,,,,,,,None,None,None,None,None,None,None,None,None,None,None,None,None,None,None,None,None,None,None,,None,None,None,,None,None,None,None,,,,,,,,,,,,,,,,,,,,,,,,,,,,,,,,,,,,,,,,,,,,,,,,,,,001,19,2019_Sep_30_1053,Block2,3.1.2,60.02625139865506,
videoBlock_schemaS_pathA_4.csv,south.png,stims/wedding-21.1a.mp4,stims/wedding-21.1b.mp4,stims/wedding-21.2a.mp4,stims/wedding-21.3b.mp4,stims/wedding-21.4a.mp4,stims/wedding-21.5.mp4,stimsday1details/egg21.png,stimsday1details/newperson10.png,stimsday1details/gift21.png,stimsday1details/newegg10.png,stimsday1details/couple21.png,stimsday1details/new10.png,stimsday1details/n21.png,stimsday1details/ct21.png,stimsday1details/cn21.png,stimsday1details/t21.png,0,4,4,0,0,0,0,0,,,,,,,,,,,,,,,,,,,,,,,,,,,,,,,,,,,,,,,,,,,,,,,,,,,,,,,,,,,,,,,,,,,3.8965954445302486e-05,None,1,1.23373666300904,700.3587633600109,None,700.3587633600109,None,700.3587633600109,None,702.3405939770164,None,1,1.5019072300055996,702.3405939770164,None,702.3405939770164,None,704.3405257129925,None,704.3405257129925,None,2,1.1690954890218563,704.3405257129925,None,2,1.2686707290122285,706.3405475650216,None,706.3405475650216,None,706.3405475650216,None,708.3404771189671,None,708.3404771189671,None,1,0.9517769269878045,708.3404771189671,None,710.3404819279676,None,1,710.3404819279676,None,710.3404819279676,None,0.835524203022942,001,19,2019_Sep_30_1053,Block2,3.1.2,60.02625139865506,
videoBlock_schemaS_pathB_4.csv,south.png,stims/wedding-35.1a.mp4,stims/wedding-35.1b.mp4,stims/wedding-35.2b.mp4,stims/wedding-35.3a.mp4,stims/wedding-35.4b.mp4,stims/wedding-35.5.mp4,stimsday1details/newpainting10.png,stimsday1details/newperson22.png,stimsday1details/gift35.png,stimsday1details/painting35.png,stimsday1details/couple35.png,stimsday1details/new22.png,stimsday1details/n35.png,stimsday1details/t35.png,stimsday1details/cn35.png,stimsday1details/ct35.png,0,5,5,3,0,0,0,0,0,0,0,0,,,,,,,,,,,,,,,,,712.6570894370088,None,None,None,None,None,None,None,None,None,None,None,None,None,None,None,None,None,,,,,,,,,,,,,,,,,,,,,,,,,,,,,,,,,,,,,,,,,,,,,,,,,,,,,,,,,,,,,,,,,,,,,,,,,,,,,,,001,19,2019_Sep_30_1053,Block2,3.1.2,60.02625139865506,
videoBlock_schemaS_pathB_4.csv,south.png,stims/wedding-35.1a.mp4,stims/wedding-35.1b.mp4,stims/wedding-35.2b.mp4,stims/wedding-35.3a.mp4,stims/wedding-35.4b.mp4,stims/wedding-35.5.mp4,stimsday1details/newpainting10.png,stimsday1details/newperson22.png,stimsday1details/gift35.png,stimsday1details/painting35.png,stimsday1details/couple35.png,stimsday1details/new22.png,stimsday1details/n35.png,stimsday1details/t35.png,stimsday1details/cn35.png,stimsday1details/ct35.png,0,5,5,3,0,0,0,0,,,,,0,0,0,0,,,,,,,,,,,,,,,,,,,,,,,,,,,,,,,2.658333918021526,None,724.7236108859652,747.556657581008,747.5733297959669,None,756.5732157399761,773.5563422489795,773.5729530529934,777.556282799982,777.5730315190158,800.5560029139742,800.5726630889694,804.5559463719837,804.5725563389715,None,828.5723125310033,None,"['1', '1']","[52.46250004199101, 3.1021077649784274]",772.5729643899831,777.556282799982,['2'],[3.235498531954363],799.5726800709963,804.5559463719837,724.7236108859652,724.7236108859652,,,,,,,,,,,,,,,,,,,,,,,,,,,,,,,,,,,,,,,,,,,,,,,,,,,001,19,2019_Sep_30_1053,Block2,3.1.2,60.02625139865506,
videoBlock_schemaS_pathB_4.csv,south.png,stims/wedding-35.1a.mp4,stims/wedding-35.1b.mp4,stims/wedding-35.2b.mp4,stims/wedding-35.3a.mp4,stims/wedding-35.4b.mp4,stims/wedding-35.5.mp4,stimsday1details/newpainting10.png,stimsday1details/newperson22.png,stimsday1details/gift35.png,stimsday1details/painting35.png,stimsday1details/couple35.png,stimsday1details/new22.png,stimsday1details/n35.png,stimsday1details/t35.png,stimsday1details/cn35.png,stimsday1details/ct35.png,0,5,5,3,0,0,0,0,,,,,,,,,,,,,,,,,,,,,,,,,,,,,,,,,,,,,,,,,,,,,,,,,,,,,,,,,,,,,,,,,,,1.8723018001765013e-05,None,1,1.1188278970075771,843.1888728499762,None,843.1888728499762,None,843.1888728499762,None,845.1887836160022,None,2,1.3026643969933502,845.1887836160022,None,845.1887836160022,None,847.1887499549775,None,847.1887499549775,None,2,0.9351626929710619,847.1887499549775,None,1,1.3523201619973406,849.1887295659981,None,849.1887295659981,None,849.1887295659981,None,851.1886449999874,None,851.1886449999874,None,1,1.1353664370253682,851.1886449999874,None,853.1886813080055,None,None,853.1886813080055,None,853.1886813080055,None,,001,19,2019_Sep_30_1053,Block2,3.1.2,60.02625139865506,
