condsFile,northOrSouth,stimFile1a,stimFile1b,stimFile2,stimFile3,stimFile4,stimFile5,QeggPainting1,Qcharacter1,Qgift1,QeggPainting2,Qcharacter2,Qgift2,Qname1,Qtheme1,Qname2,Qtheme2,block.thisRepN,block.thisTrialN,block.thisN,block.thisIndex,trials.thisRepN,trials.thisTrialN,trials.thisN,trials.thisIndex,noQtrials.thisRepN,noQtrials.thisTrialN,noQtrials.thisN,noQtrials.thisIndex,Qtrials.thisRepN,Qtrials.thisTrialN,Qtrials.thisN,Qtrials.thisIndex,text.started,text.stopped,prep_trigger.keys,prep_trigger.rt,prep_trigger.started,prep_trigger.stopped,waiting.started,waiting.stopped,trigger.keys,trigger.rt,trigger.started,trigger.stopped,image_3.started,image_3.stopped,trialNoQs.started,trialNoQs.stopped,vid1a.started,vid1a.stopped,vid1b.started,vid1b.stopped,vid2.started,vid2.stopped,vid3.started,vid3.stopped,vid4.started,vid4.stopped,vid5.started,vid5.stopped,ISI2.started,ISI2.stopped,vid1a_q.started,vid1a_q.stopped,vid1b_q.started,vid1b_q.stopped,vid2_q.started,vid2_q.stopped,l2q.started,l2q.stopped,vid3_q.started,vid3_q.stopped,l3q.started,l3q.stopped,vid4_q.started,vid4_q.stopped,vid5_q.started,vid5_q.stopped,key_resp_2.keys,key_resp_2.started,key_resp_2.stopped,key_resp_3.keys,key_resp_3.rt,key_resp_3.started,key_resp_3.stopped,ISI7.started,ISI7.stopped,nameQresp.keys,nameQresp.started,nameQresp.stopped,nameQ1.started,nameQ1.stopped,nameQ2.started,nameQ2.stopped,eggPainting1.started,eggPainting1.stopped,eggPaintingQresp.keys,eggPaintingQresp.rt,eggPaintingQresp.started,eggPaintingQresp.stopped,eggPainting2.started,eggPainting2.stopped,character1.started,character1.stopped,character2.started,character2.stopped,Qcharacter.keys,Qcharacter.started,Qcharacter.stopped,themeQresp.keys,themeQresp.started,themeQresp.stopped,themeQ1.started,themeQ1.stopped,themeQ2.started,themeQ2.stopped,gift1.started,gift1.stopped,gift2.started,gift2.stopped,giftQresp.keys,giftQresp.started,giftQresp.stopped,northorsouth1.started,northorsouth1.stopped,northOrSouthQ.keys,northOrSouthQ.started,northOrSouthQ.stopped,northorsouth2.started,northorsouth2.stopped,themeQresp.rt,giftQresp.rt,Qcharacter.rt,northOrSouthQ.rt,key_resp_2.rt,nameQresp.rt,session,participant,date,expName,psychopyVersion,frameRate,
,,,,,,,,,,,,,,,,,,,,,,,,,,,,,,,,,,6.963631693972275,None,g,1.1022526510059834,6.963631693972275,None,,,,,,,,,,,,,,,,,,,,,,,,,,,,,,,,,,,,,,,,,,,,,,,,,,,,,,,,,,,,,,,,,,,,,,,,,,,,,,,,,,,,,,,,,,,,,,,,,,,001,2,2019_Jun_20_1338,Block1,3.1.2,59.99775500520851,
,,,,,,,,,,,,,,,,,,,,,,,,,,,,,,,,,,,,,,,,8.078528858954087,None,equal,17.602016241988167,8.078528858954087,None,,,,,,,,,,,,,,,,,,,,,,,,,,,,,,,,,,,,,,,,,,,,,,,,,,,,,,,,,,,,,,,,,,,,,,,,,,,,,,,,,,,,,,,,,,,,,001,2,2019_Jun_20_1338,Block1,3.1.2,59.99775500520851,
videoBlock_schemaN_pathB_1.csv,north.png,stims/wedding-4.1a.mp4,stims/wedding-4.1b.mp4,stims/wedding-4.2b.mp4,stims/wedding-4.3b.mp4,stims/wedding-4.4b.mp4,stims/wedding-4.5.mp4,stimsday1details/newpainting1.png,stimsday1details/newperson13.png,stimsday1details/gift4.png,stimsday1details/painting4.png,stimsday1details/couple4.png,stimsday1details/new13.png,stimsday1details/n4.png,stimsday1details/ct4.png,stimsday1details/cn4.png,stimsday1details/t4.png,0,0,0,3,0,0,0,0,0,0,0,0,,,,,,,,,,,,,,,,,25.713650866993703,None,None,None,None,None,None,None,None,None,None,None,None,None,None,None,,,,,,,,,,,,,,,,,,,,,,,,,,,,,,,,,,,,,,,,,,,,,,,,,,,,,,,,,,,,,,,,,,,,,,,,,,,,,001,2,2019_Jun_20_1338,Block1,3.1.2,59.99775500520851,
videoBlock_schemaN_pathB_1.csv,north.png,stims/wedding-4.1a.mp4,stims/wedding-4.1b.mp4,stims/wedding-4.2b.mp4,stims/wedding-4.3b.mp4,stims/wedding-4.4b.mp4,stims/wedding-4.5.mp4,stimsday1details/newpainting1.png,stimsday1details/newperson13.png,stimsday1details/gift4.png,stimsday1details/painting4.png,stimsday1details/couple4.png,stimsday1details/new13.png,stimsday1details/n4.png,stimsday1details/ct4.png,stimsday1details/cn4.png,stimsday1details/t4.png,0,0,0,3,0,0,0,0,,,,,0,0,0,0,,,,,,,,,,,,,,,,,,,,,,,,,,,,,2.485266385949217,None,37.94483384094201,52.46130935999099,52.46130935999099,None,61.461203020997345,None,78.46098774904385,82.46094601193909,82.46094601193909,105.46068549703341,105.46068549703341,109.46061478496995,109.46061478496995,None,133.4603141170228,None,None,77.4610080269631,82.46094601193909,['1'],[3.2020328330108896],104.46069363004062,109.46061478496995,,,,,,,,,,,,,,,,,,,,,,,,,,,,,,,,,,,,,,,,,,,,,,,,,,,,001,2,2019_Jun_20_1338,Block1,3.1.2,59.99775500520851,
videoBlock_schemaN_pathB_1.csv,north.png,stims/wedding-4.1a.mp4,stims/wedding-4.1b.mp4,stims/wedding-4.2b.mp4,stims/wedding-4.3b.mp4,stims/wedding-4.4b.mp4,stims/wedding-4.5.mp4,stimsday1details/newpainting1.png,stimsday1details/newperson13.png,stimsday1details/gift4.png,stimsday1details/painting4.png,stimsday1details/couple4.png,stimsday1details/new13.png,stimsday1details/n4.png,stimsday1details/ct4.png,stimsday1details/cn4.png,stimsday1details/t4.png,0,0,0,3,0,0,0,0,,,,,,,,,,,,,,,,,,,,,,,,,,,,,,,,,,,,,,,,,,,,,,,,,,,,,,,,,,,,,,2.3917993530631065e-05,None,None,148.14349606295582,None,148.14349606295582,None,148.14349606295582,None,150.1267099790275,None,2,1.8356446200050414,150.1267099790275,None,150.1267099790275,None,152.1267524419818,None,152.1267524419818,None,None,152.1267524419818,None,None,154.12672498100437,None,154.12672498100437,None,154.12672498100437,None,156.12670306593645,None,156.12670306593645,None,None,156.12670306593645,None,158.126679840032,None,None,158.126679840032,None,158.126679840032,None,,,,,,,001,2,2019_Jun_20_1338,Block1,3.1.2,59.99775500520851,
videoBlock_schemaN_pathA_1.csv,north.png,stims/wedding-3.1a.mp4,stims/wedding-3.1b.mp4,stims/wedding-3.2a.mp4,stims/wedding-3.3a.mp4,stims/wedding-3.4a.mp4,stims/wedding-3.5.mp4,stimsday1details/egg3.png,stimsday1details/couple3.png,stimsday1details/new1.png,stimsday1details/newegg1.png,stimsday1details/newperson1.png,stimsday1details/gift3.png,stimsday1details/cn3.png,stimsday1details/t3.png,stimsday1details/n3.png,stimsday1details/ct3.png,0,1,1,0,0,0,0,0,0,0,0,0,,,,,,,,,,,,,,,,,160.2933136789361,None,2.617760539986193,None,169.91215874196496,184.2930861429777,184.3096873339964,None,193.30957690195646,210.2926949210232,210.30928753397893,233.2923568530241,233.30903789703734,None,257.3087794400053,None,,,,,,,,,,,,,,,,,,,,,,,,,,,,,,,,,,,,,,,,,,,,,,,,,,,,,,,,,,,,,,,,,,,,,,,,,,,,,001,2,2019_Jun_20_1338,Block1,3.1.2,59.99775500520851,
videoBlock_schemaN_pathA_1.csv,north.png,stims/wedding-3.1a.mp4,stims/wedding-3.1b.mp4,stims/wedding-3.2a.mp4,stims/wedding-3.3a.mp4,stims/wedding-3.4a.mp4,stims/wedding-3.5.mp4,stimsday1details/egg3.png,stimsday1details/couple3.png,stimsday1details/new1.png,stimsday1details/newegg1.png,stimsday1details/newperson1.png,stimsday1details/gift3.png,stimsday1details/cn3.png,stimsday1details/t3.png,stimsday1details/n3.png,stimsday1details/ct3.png,0,1,1,0,0,0,0,0,,,,,0,0,0,0,,,,,,,,,,,,,,,,,,,,,,,,,,,,,None,None,None,None,None,None,None,None,None,None,None,None,None,None,None,None,None,None,None,None,None,None,,None,None,,,,,,,,,,,,,,,,,,,,,,,,,,,,,,,,,,,,,,,,,,,,,,,,,,,,001,2,2019_Jun_20_1338,Block1,3.1.2,59.99775500520851,
videoBlock_schemaN_pathA_1.csv,north.png,stims/wedding-3.1a.mp4,stims/wedding-3.1b.mp4,stims/wedding-3.2a.mp4,stims/wedding-3.3a.mp4,stims/wedding-3.4a.mp4,stims/wedding-3.5.mp4,stimsday1details/egg3.png,stimsday1details/couple3.png,stimsday1details/new1.png,stimsday1details/newegg1.png,stimsday1details/newperson1.png,stimsday1details/gift3.png,stimsday1details/cn3.png,stimsday1details/t3.png,stimsday1details/n3.png,stimsday1details/ct3.png,0,1,1,0,0,0,0,0,,,,,,,,,,,,,,,,,,,,,,,,,,,,,,,,,,,,,,,,,,,,,,,,,,,,,,,,,,,,,,2.691592089831829e-05,None,None,274.42858929699287,None,274.42858929699287,None,274.42858929699287,None,276.4085475569591,None,None,,276.4085475569591,None,276.4085475569591,None,278.40851589804515,None,278.40851589804515,None,None,278.40851589804515,None,None,280.4084873959655,None,280.4084873959655,None,280.4084873959655,None,282.40840913099237,None,282.40840913099237,None,None,282.40840913099237,None,284.40838337899186,None,None,284.40838337899186,None,284.40838337899186,None,,,,,,,001,2,2019_Jun_20_1338,Block1,3.1.2,59.99775500520851,
videoBlock_schemaN_pathA_2.csv,north.png,stims/wedding-5.1a.mp4,stims/wedding-5.1b.mp4,stims/wedding-5.2a.mp4,stims/wedding-5.3a.mp4,stims/wedding-5.4a.mp4,stims/wedding-5.5.mp4,stimsday1details/newegg2.png,stimsday1details/couple5.png,stimsday1details/gift5.png,stimsday1details/egg5.png,stimsday1details/newperson2.png,stimsday1details/new2.png,stimsday1details/cn5.png,stimsday1details/ct5.png,stimsday1details/n5.png,stimsday1details/t5.png,0,2,2,1,0,0,0,0,0,0,0,0,,,,,,,,,,,,,,,,,286.5917384319473,None,2.6594868239481,None,296.2583594189491,310.6081143829506,310.62478673795704,319.608001229004,319.62467414396815,336.60780017101206,336.6244599419879,359.6075067910133,359.6241777809337,383.60720278695226,383.62381567200646,None,,,,,,,,,,,,,,,,,,,,,,,,,,,,,,,,,,,,,,,,,,,,,,,,,,,,,,,,,,,,,,,,,,,,,,,,,,,,,001,2,2019_Jun_20_1338,Block1,3.1.2,59.99775500520851,
videoBlock_schemaN_pathA_2.csv,north.png,stims/wedding-5.1a.mp4,stims/wedding-5.1b.mp4,stims/wedding-5.2a.mp4,stims/wedding-5.3a.mp4,stims/wedding-5.4a.mp4,stims/wedding-5.5.mp4,stimsday1details/newegg2.png,stimsday1details/couple5.png,stimsday1details/gift5.png,stimsday1details/egg5.png,stimsday1details/newperson2.png,stimsday1details/new2.png,stimsday1details/cn5.png,stimsday1details/ct5.png,stimsday1details/n5.png,stimsday1details/t5.png,0,2,2,1,0,0,0,0,,,,,0,0,0,0,,,,,,,,,,,,,,,,,,,,,,,,,,,,,None,None,None,None,None,None,None,None,None,None,None,None,None,None,None,None,None,None,None,None,None,None,,None,None,,,,,,,,,,,,,,,,,,,,,,,,,,,,,,,,,,,,,,,,,,,,,,,,,,,,001,2,2019_Jun_20_1338,Block1,3.1.2,59.99775500520851,
videoBlock_schemaN_pathA_2.csv,north.png,stims/wedding-5.1a.mp4,stims/wedding-5.1b.mp4,stims/wedding-5.2a.mp4,stims/wedding-5.3a.mp4,stims/wedding-5.4a.mp4,stims/wedding-5.5.mp4,stimsday1details/newegg2.png,stimsday1details/couple5.png,stimsday1details/gift5.png,stimsday1details/egg5.png,stimsday1details/newperson2.png,stimsday1details/new2.png,stimsday1details/cn5.png,stimsday1details/ct5.png,stimsday1details/n5.png,stimsday1details/t5.png,0,2,2,1,0,0,0,0,,,,,,,,,,,,,,,,,,,,,,,,,,,,,,,,,,,,,,,,,,,,,,,,,,,,,,,,,,,,,,3.1078001484274864e-05,None,None,401.52366225700825,None,401.52366225700825,None,401.52366225700825,None,403.5069564100122,None,None,,403.5069564100122,None,403.5069564100122,None,405.50693799695,None,405.50693799695,None,None,405.50693799695,None,None,407.5069083549315,None,407.5069083549315,None,407.5069083549315,None,409.5068805749761,None,409.5068805749761,None,None,409.5068805749761,None,411.5068621520186,None,None,411.5068621520186,None,411.5068621520186,None,,,,,,,001,2,2019_Jun_20_1338,Block1,3.1.2,59.99775500520851,
videoBlock_schemaN_pathB_3.csv,north.png,stims/wedding-11.1a.mp4,stims/wedding-11.1b.mp4,stims/wedding-11.2b.mp4,stims/wedding-11.3b.mp4,stims/wedding-11.4b.mp4,stims/wedding-11.5.mp4,stimsday1details/painting11.png,stimsday1details/couple11.png,stimsday1details/gift11.png,stimsday1details/newpainting3.png,stimsday1details/newperson15.png,stimsday1details/new15.png,stimsday1details/cn11.png,stimsday1details/ct11.png,stimsday1details/n11.png,stimsday1details/t11.png,0,3,3,5,0,0,0,0,0,0,0,0,,,,,,,,,,,,,,,,,413.723489505006,None,2.695695015019737,None,423.42337612994015,437.7231546069961,437.7398694929434,None,446.7398571179947,None,463.7394739179872,486.7225813829573,486.73925150802825,None,510.73892503697425,None,,,,,,,,,,,,,,,,,,,,,,,,,,,,,,,,,,,,,,,,,,,,,,,,,,,,,,,,,,,,,,,,,,,,,,,,,,,,,001,2,2019_Jun_20_1338,Block1,3.1.2,59.99775500520851,
videoBlock_schemaN_pathB_3.csv,north.png,stims/wedding-11.1a.mp4,stims/wedding-11.1b.mp4,stims/wedding-11.2b.mp4,stims/wedding-11.3b.mp4,stims/wedding-11.4b.mp4,stims/wedding-11.5.mp4,stimsday1details/painting11.png,stimsday1details/couple11.png,stimsday1details/gift11.png,stimsday1details/newpainting3.png,stimsday1details/newperson15.png,stimsday1details/new15.png,stimsday1details/cn11.png,stimsday1details/ct11.png,stimsday1details/n11.png,stimsday1details/t11.png,0,3,3,5,0,0,0,0,,,,,0,0,0,0,,,,,,,,,,,,,,,,,,,,,,,,,,,,,None,None,None,None,None,None,None,None,None,None,None,None,None,None,None,None,None,None,None,None,None,None,,None,None,,,,,,,,,,,,,,,,,,,,,,,,,,,,,,,,,,,,,,,,,,,,,,,,,,,,001,2,2019_Jun_20_1338,Block1,3.1.2,59.99775500520851,
videoBlock_schemaN_pathB_3.csv,north.png,stims/wedding-11.1a.mp4,stims/wedding-11.1b.mp4,stims/wedding-11.2b.mp4,stims/wedding-11.3b.mp4,stims/wedding-11.4b.mp4,stims/wedding-11.5.mp4,stimsday1details/painting11.png,stimsday1details/couple11.png,stimsday1details/gift11.png,stimsday1details/newpainting3.png,stimsday1details/newperson15.png,stimsday1details/new15.png,stimsday1details/cn11.png,stimsday1details/ct11.png,stimsday1details/n11.png,stimsday1details/t11.png,0,3,3,5,0,0,0,0,,,,,,,,,,,,,,,,,,,,,,,,,,,,,,,,,,,,,,,,,,,,,,,,,,,,,,,,,,,,,,3.698898945003748e-05,None,None,528.688651051023,None,528.688651051023,None,528.688651051023,None,530.6720338260056,None,1,1.4854334539268166,530.6720338260056,None,530.6720338260056,None,532.6720100790262,None,532.6720100790262,None,None,532.6720100790262,None,2,534.6719784949673,None,534.6719784949673,None,534.6719784949673,None,536.6719626949634,None,536.6719626949634,None,1,536.6719626949634,None,538.6719465149799,None,None,538.6719465149799,None,538.6719465149799,None,1.2683742260560393,1.2684310970362276,,,,,001,2,2019_Jun_20_1338,Block1,3.1.2,59.99775500520851,
videoBlock_schemaN_pathB_2.csv,north.png,stims/wedding-8.1a.mp4,stims/wedding-8.1b.mp4,stims/wedding-8.2b.mp4,stims/wedding-8.3b.mp4,stims/wedding-8.4b.mp4,stims/wedding-8.5.mp4,stimsday1details/newpainting2.png,stimsday1details/newperson14.png,stimsday1details/new14.png,stimsday1details/painting8.png,stimsday1details/couple8.png,stimsday1details/gift8.png,stimsday1details/n8.png,stimsday1details/t8.png,stimsday1details/cn8.png,stimsday1details/ct8.png,0,4,4,4,0,0,0,0,0,0,0,0,,,,,,,,,,,,,,,,,540.9385831180261,None,2.6546302820788696,None,550.58851280401,564.9382477100007,564.9548915260239,573.9381578200264,573.9548284990015,None,590.9546171800466,None,613.9543341509998,None,637.9539940219838,None,,,,,,,,,,,,,,,,,,,,,,,,,,,,,,,,,,,,,,,,,,,,,,,,,,,,,,,,,,,,,,,,,,,,,,,,,,,,,001,2,2019_Jun_20_1338,Block1,3.1.2,59.99775500520851,
videoBlock_schemaN_pathB_2.csv,north.png,stims/wedding-8.1a.mp4,stims/wedding-8.1b.mp4,stims/wedding-8.2b.mp4,stims/wedding-8.3b.mp4,stims/wedding-8.4b.mp4,stims/wedding-8.5.mp4,stimsday1details/newpainting2.png,stimsday1details/newperson14.png,stimsday1details/new14.png,stimsday1details/painting8.png,stimsday1details/couple8.png,stimsday1details/gift8.png,stimsday1details/n8.png,stimsday1details/t8.png,stimsday1details/cn8.png,stimsday1details/ct8.png,0,4,4,4,0,0,0,0,,,,,0,0,0,0,,,,,,,,,,,,,,,,,,,,,,,,,,,,,None,None,None,None,None,None,None,None,None,None,None,None,None,None,None,None,None,None,None,None,None,None,,None,None,,,,,,,,,,,,,,,,,,,,,,,,,,,,,,,,,,,,,,,,,,,,,,,,,,,,001,2,2019_Jun_20_1338,Block1,3.1.2,59.99775500520851,
videoBlock_schemaN_pathB_2.csv,north.png,stims/wedding-8.1a.mp4,stims/wedding-8.1b.mp4,stims/wedding-8.2b.mp4,stims/wedding-8.3b.mp4,stims/wedding-8.4b.mp4,stims/wedding-8.5.mp4,stimsday1details/newpainting2.png,stimsday1details/newperson14.png,stimsday1details/new14.png,stimsday1details/painting8.png,stimsday1details/couple8.png,stimsday1details/gift8.png,stimsday1details/n8.png,stimsday1details/t8.png,stimsday1details/cn8.png,stimsday1details/ct8.png,0,4,4,4,0,0,0,0,,,,,,,,,,,,,,,,,,,,,,,,,,,,,,,,,,,,,,,,,,,,,,,,,,,,,,,,,,,,,,3.4363940358161926e-05,None,None,655.2247261230368,None,655.2247261230368,None,655.2247261230368,None,657.2037867499748,None,2,1.0854524599853903,657.2037867499748,None,657.2037867499748,None,659.2037653609877,None,659.2037653609877,None,2,659.2037653609877,None,1,661.203739488963,None,661.203739488963,None,661.203739488963,None,663.2036403570091,None,663.2036403570091,None,2,663.2036403570091,None,665.2036889869487,None,1,665.2036889869487,None,665.2036889869487,None,1.2019592890283093,0.8355342070572078,1.5017070100875571,0.9536744069773704,,,001,2,2019_Jun_20_1338,Block1,3.1.2,59.99775500520851,
videoBlock_schemaN_pathA_3.csv,north.png,stims/wedding-9.1a.mp4,stims/wedding-9.1b.mp4,stims/wedding-9.2a.mp4,stims/wedding-9.3a.mp4,stims/wedding-9.4a.mp4,stims/wedding-9.5.mp4,stimsday1details/newegg3.png,stimsday1details/newperson3.png,stimsday1details/gift9.png,stimsday1details/egg9.png,stimsday1details/couple9.png,stimsday1details/new3.png,stimsday1details/n9.png,stimsday1details/t9.png,stimsday1details/cn9.png,stimsday1details/ct9.png,0,5,5,2,0,0,0,0,0,0,0,0,,,,,,,,,,,,,,,,,667.5036580029409,None,None,None,None,None,None,None,None,None,None,None,None,None,None,None,,,,,,,,,,,,,,,,,,,,,,,,,,,,,,,,,,,,,,,,,,,,,,,,,,,,,,,,,,,,,,,,,,,,,,,,,,,,,001,2,2019_Jun_20_1338,Block1,3.1.2,59.99775500520851,
videoBlock_schemaN_pathA_3.csv,north.png,stims/wedding-9.1a.mp4,stims/wedding-9.1b.mp4,stims/wedding-9.2a.mp4,stims/wedding-9.3a.mp4,stims/wedding-9.4a.mp4,stims/wedding-9.5.mp4,stimsday1details/newegg3.png,stimsday1details/newperson3.png,stimsday1details/gift9.png,stimsday1details/egg9.png,stimsday1details/couple9.png,stimsday1details/new3.png,stimsday1details/n9.png,stimsday1details/t9.png,stimsday1details/cn9.png,stimsday1details/ct9.png,0,5,5,2,0,0,0,0,,,,,0,0,0,0,,,,,,,,,,,,,,,,,,,,,,,,,,,,,2.684721671976149,None,680.0702286839951,694.3866545580095,694.4032465299824,703.3865570109338,703.4032150059938,720.3863418819383,720.4030721880263,724.3862885290291,724.4029763910221,None,747.4026637499919,751.3859498660313,751.4026225670241,775.3856577889528,775.4022426019656,None,['2'],719.4030284560286,724.3862885290291,['1'],[3.652093704091385],746.4026432220126,751.3859498660313,,,,,,,,,,,,,,,,,,,,,,,,,,,,,,,,,,,,,,,,,,,,,,,,,,[3.785470959963277],,001,2,2019_Jun_20_1338,Block1,3.1.2,59.99775500520851,
videoBlock_schemaN_pathA_3.csv,north.png,stims/wedding-9.1a.mp4,stims/wedding-9.1b.mp4,stims/wedding-9.2a.mp4,stims/wedding-9.3a.mp4,stims/wedding-9.4a.mp4,stims/wedding-9.5.mp4,stimsday1details/newegg3.png,stimsday1details/newperson3.png,stimsday1details/gift9.png,stimsday1details/egg9.png,stimsday1details/couple9.png,stimsday1details/new3.png,stimsday1details/n9.png,stimsday1details/t9.png,stimsday1details/cn9.png,stimsday1details/ct9.png,0,5,5,2,0,0,0,0,,,,,,,,,,,,,,,,,,,,,,,,,,,,,,,,,,,,,,,,,,,,,,,,,,,,,,,,,,,,,,3.423204179853201e-05,None,1,790.2521436139941,None,790.2521436139941,None,790.2521436139941,None,792.2354401629418,None,2,1.1185251319548115,792.2354401629418,None,792.2354401629418,None,794.23545633303,None,794.23545633303,None,2,794.23545633303,None,1,796.2353334759828,None,796.2353334759828,None,796.2353334759828,None,798.2353756939992,None,798.2353756939992,None,1,798.2353756939992,None,800.2353447759524,None,1,800.2353447759524,None,800.2353447759524,None,1.5685455419588834,1.5686843000585213,1.335219986969605,1.0669869219418615,,1.2854660949669778,001,2,2019_Jun_20_1338,Block1,3.1.2,59.99775500520851,
