northOrSouth,stimFile1a,stimFile1b,stimFile2,stimFile3,stimFile4,stimFile5,Qeggpainting1,Qeggpainting2,Qcharacter1,Qcharacter2,Qgift1,Qgift2,Qname1,Qname2,Qtheme1,Qtheme2,trials.thisRepN,trials.thisTrialN,trials.thisN,trials.thisIndex,South.thisRepN,South.thisTrialN,South.thisN,South.thisIndex,North.thisRepN,North.thisTrialN,North.thisN,North.thisIndex,noQtrials.thisRepN,noQtrials.thisTrialN,noQtrials.thisN,noQtrials.thisIndex,Qtrials.thisRepN,Qtrials.thisTrialN,Qtrials.thisN,Qtrials.thisIndex,text.started,text.stopped,prep_trigger.keys,prep_trigger.rt,prep_trigger.started,prep_trigger.stopped,waiting.started,waiting.stopped,trigger.keys,trigger.rt,trigger.started,trigger.stopped,southCueImage.started,southCueImage.stopped,northCueImage.started,northCueImage.stopped,trialNoQs.started,trialNoQs.stopped,vid1a.started,vid1a.stopped,vid1b.started,vid1b.stopped,vid2.started,vid2.stopped,vid3.started,vid3.stopped,vid4.started,vid4.stopped,vid5.started,vid5.stopped,ISI2.started,ISI2.stopped,vid1a_q.started,vid1a_q.stopped,vid1b_q.started,vid1b_q.stopped,vid2_q.started,vid2_q.stopped,l2q.started,l2q.stopped,vid3_q.started,vid3_q.stopped,l3q.started,l3q.stopped,vid4_q.started,vid4_q.stopped,vid5_q.started,vid5_q.stopped,key_resp_2.keys,key_resp_2.rt,key_resp_2.started,key_resp_2.stopped,key_resp_3.keys,key_resp_3.rt,key_resp_3.started,key_resp_3.stopped,ISI7.started,ISI7.stopped,nameQresp.keys,nameQresp.rt,nameQresp.started,nameQresp.stopped,nameQ1.started,nameQ1.stopped,nameQ2.started,nameQ2.stopped,eggPainting1.started,eggPainting1.stopped,eggPaintingQresp.keys,eggPaintingQresp.rt,eggPaintingQresp.started,eggPaintingQresp.stopped,eggPainting2.started,eggPainting2.stopped,character1.started,character1.stopped,character2.started,character2.stopped,Qcharacter.keys,Qcharacter.rt,Qcharacter.started,Qcharacter.stopped,themeQresp.keys,themeQresp.rt,themeQresp.started,themeQresp.stopped,themeQ1.started,themeQ1.stopped,themeQ2.started,themeQ2.stopped,gift1.started,gift1.stopped,gift2.started,gift2.stopped,giftQresp.keys,giftQresp.rt,giftQresp.started,giftQresp.stopped,northorsouth1.started,northorsouth1.stopped,northorsouth2.started,northorsouth2.stopped,northOrSouthQ.keys,northOrSouthQ.rt,northOrSouthQ.started,northOrSouthQ.stopped,session,participant,date,expName,psychopyVersion,frameRate,
,,,,,,,,,,,,,,,,,,,,,,,,,,,,,,,,,,,,,8.309958737925626,None,g,1.1545146389398724,8.309958737925626,None,,,,,,,,,,,,,,,,,,,,,,,,,,,,,,,,,,,,,,,,,,,,,,,,,,,,,,,,,,,,,,,,,,,,,,,,,,,,,,,,,,,,,,,,,,,,,,,,,,,,,001,8,2019_Jul_30_1402,viewing,3.1.2,60.00002759044396,
,,,,,,,,,,,,,,,,,,,,,,,,,,,,,,,,,,,,,,,,,,,9.476685491972603,None,equal,33.535301730036736,9.476685491972603,None,,,,,,,,,,,,,,,,,,,,,,,,,,,,,,,,,,,,,,,,,,,,,,,,,,,,,,,,,,,,,,,,,,,,,,,,,,,,,,,,,,,,,,,,,,,,,,,001,8,2019_Jul_30_1402,viewing,3.1.2,60.00002759044396,
south.png,stims/wedding-1.1a.mp4,stims/wedding-1.1b.mp4,stims/wedding-1.2b.mp4,stims/wedding-1.3a.mp4,stims/wedding-1.4b.mp4,stims/wedding-1.5.mp4,stimsday2details/newpainting13.png,stimsday2details/painting1.png,stimsday2details/couple1.png,stimsday2details/newperson25.png,stimsday2details/gift1.png,stimsday2details/new25.png,stimsday2details/cn1.png,stimsday2details/n1.png,stimsday2details/ct1.png,stimsday2details/t1.png,0,0,0,0,0,0,0,0,,,,,,,,,,,,,,,,,,,,,,,,,43.059605002985336,None,,,,,,,,,,,,,,,,,,,,,,,,,,,,,,,,,,,,,,,,,,,,,,,,,,,,,,,,,,,,,,,,,,,,,,,,,,,,,,,,,,,,,,,,,,,,,001,8,2019_Jul_30_1402,viewing,3.1.2,60.00002759044396,
south.png,stims/wedding-1.1a.mp4,stims/wedding-1.1b.mp4,stims/wedding-1.2b.mp4,stims/wedding-1.3a.mp4,stims/wedding-1.4b.mp4,stims/wedding-1.5.mp4,stimsday2details/newpainting13.png,stimsday2details/painting1.png,stimsday2details/couple1.png,stimsday2details/newperson25.png,stimsday2details/gift1.png,stimsday2details/new25.png,stimsday2details/cn1.png,stimsday2details/n1.png,stimsday2details/ct1.png,stimsday2details/t1.png,0,0,0,0,,,,,0,0,0,0,,,,,,,,,,,,,,,,,,,,,,,None,None,,,,,,,,,,,,,,,,,,,,,,,,,,,,,,,,,,,,,,,,,,,,,,,,,,,,,,,,,,,,,,,,,,,,,,,,,,,,,,,,,,,,,,,,,,,001,8,2019_Jul_30_1402,viewing,3.1.2,60.00002759044396,
south.png,stims/wedding-1.1a.mp4,stims/wedding-1.1b.mp4,stims/wedding-1.2b.mp4,stims/wedding-1.3a.mp4,stims/wedding-1.4b.mp4,stims/wedding-1.5.mp4,stimsday2details/newpainting13.png,stimsday2details/painting1.png,stimsday2details/couple1.png,stimsday2details/newperson25.png,stimsday2details/gift1.png,stimsday2details/new25.png,stimsday2details/cn1.png,stimsday2details/n1.png,stimsday2details/ct1.png,stimsday2details/t1.png,0,0,0,0,,,,,,,,,0,0,0,0,,,,,,,,,,,,,,,,,,,,,None,None,None,None,None,None,None,None,None,None,None,None,None,None,,,,,,,,,,,,,,,,,,,,,,,,,,,,,,,,,,,,,,,,,,,,,,,,,,,,,,,,,,,,,,,,,,,,,,,,,,,,,001,8,2019_Jul_30_1402,viewing,3.1.2,60.00002759044396,
south.png,stims/wedding-1.1a.mp4,stims/wedding-1.1b.mp4,stims/wedding-1.2b.mp4,stims/wedding-1.3a.mp4,stims/wedding-1.4b.mp4,stims/wedding-1.5.mp4,stimsday2details/newpainting13.png,stimsday2details/painting1.png,stimsday2details/couple1.png,stimsday2details/newperson25.png,stimsday2details/gift1.png,stimsday2details/new25.png,stimsday2details/cn1.png,stimsday2details/n1.png,stimsday2details/ct1.png,stimsday2details/t1.png,0,0,0,0,,,,,,,,,,,,,0,0,0,0,,,,,,,,,,,,,,,,,,,,,,,,,,,,,,,2.7698593009263277,None,55.97823491494637,81.20913548895624,81.22580861195456,None,90.22574297199026,None,107.22549322398845,111.20877594396006,111.22544427693356,134.20852163189556,134.22516585199628,138.20847253897227,138.22510937496554,162.2081641209079,162.22482188988943,None,['1'],[2.4857430040137842],106.22552183794323,111.20877594396006,['2'],[2.787720641004853],133.22523002699018,138.20847253897227,,,,,,,,,,,,,,,,,,,,,,,,,,,,,,,,,,,,,,,,,,,,,,,,,,,001,8,2019_Jul_30_1402,viewing,3.1.2,60.00002759044396,
south.png,stims/wedding-1.1a.mp4,stims/wedding-1.1b.mp4,stims/wedding-1.2b.mp4,stims/wedding-1.3a.mp4,stims/wedding-1.4b.mp4,stims/wedding-1.5.mp4,stimsday2details/newpainting13.png,stimsday2details/painting1.png,stimsday2details/couple1.png,stimsday2details/newperson25.png,stimsday2details/gift1.png,stimsday2details/new25.png,stimsday2details/cn1.png,stimsday2details/n1.png,stimsday2details/ct1.png,stimsday2details/t1.png,0,0,0,0,,,,,,,,,,,,,,,,,,,,,,,,,,,,,,,,,,,,,,,,,,,,,,,,,,,,,,,,,,,,,,,,,,,,,,,,,2.22519738599658e-05,None,2,0.8523878799751401,182.75790940399747,None,182.75790940399747,None,182.75790940399747,None,184.74115219293162,None,2,1.3686561529757455,184.74115219293162,None,184.74115219293162,None,186.74113197799306,None,186.74113197799306,None,1,0.8503670290810987,186.74113197799306,None,2,1.1023111870745197,188.74109991791192,None,188.74109991791192,None,188.74109991791192,None,190.74113892694004,None,190.74113892694004,None,1,0.8020181249594316,190.74113892694004,None,192.74111527297646,None,192.74111527297646,None,2,0.7353162079816684,192.74111527297646,None,001,8,2019_Jul_30_1402,viewing,3.1.2,60.00002759044396,
north.png,stims/wedding-28.1a.mp4,stims/wedding-28.1b.mp4,stims/wedding-28.2b.mp4,stims/wedding-28.3b.mp4,stims/wedding-28.4b.mp4,stims/wedding-28.5.mp4,stimsday2details/newpainting14.png,stimsday2details/painting28.png,stimsday2details/couple28.png,stimsday2details/newperson26.png,stimsday2details/gift28.png,stimsday2details/new26.png,stimsday2details/n28.png,stimsday2details/cn28.png,stimsday2details/ct28.png,stimsday2details/t28.png,0,1,1,1,0,0,0,0,,,,,,,,,,,,,,,,,,,,,,,,,None,None,,,,,,,,,,,,,,,,,,,,,,,,,,,,,,,,,,,,,,,,,,,,,,,,,,,,,,,,,,,,,,,,,,,,,,,,,,,,,,,,,,,,,,,,,,,,,001,8,2019_Jul_30_1402,viewing,3.1.2,60.00002759044396,
north.png,stims/wedding-28.1a.mp4,stims/wedding-28.1b.mp4,stims/wedding-28.2b.mp4,stims/wedding-28.3b.mp4,stims/wedding-28.4b.mp4,stims/wedding-28.5.mp4,stimsday2details/newpainting14.png,stimsday2details/painting28.png,stimsday2details/couple28.png,stimsday2details/newperson26.png,stimsday2details/gift28.png,stimsday2details/new26.png,stimsday2details/n28.png,stimsday2details/cn28.png,stimsday2details/ct28.png,stimsday2details/t28.png,0,1,1,1,,,,,0,0,0,0,,,,,,,,,,,,,,,,,,,,,,,194.7911098509794,None,,,,,,,,,,,,,,,,,,,,,,,,,,,,,,,,,,,,,,,,,,,,,,,,,,,,,,,,,,,,,,,,,,,,,,,,,,,,,,,,,,,,,,,,,,,001,8,2019_Jul_30_1402,viewing,3.1.2,60.00002759044396,
north.png,stims/wedding-28.1a.mp4,stims/wedding-28.1b.mp4,stims/wedding-28.2b.mp4,stims/wedding-28.3b.mp4,stims/wedding-28.4b.mp4,stims/wedding-28.5.mp4,stimsday2details/newpainting14.png,stimsday2details/painting28.png,stimsday2details/couple28.png,stimsday2details/newperson26.png,stimsday2details/gift28.png,stimsday2details/new26.png,stimsday2details/n28.png,stimsday2details/cn28.png,stimsday2details/ct28.png,stimsday2details/t28.png,0,1,1,1,,,,,,,,,0,0,0,0,,,,,,,,,,,,,,,,,,,,,2.8941551219904795,None,204.7409738189308,229.84066934895236,229.8573336818954,None,238.8571508199675,None,255.85701755795162,278.8400676049059,278.856736040907,None,302.8563788259635,None,,,,,,,,,,,,,,,,,,,,,,,,,,,,,,,,,,,,,,,,,,,,,,,,,,,,,,,,,,,,,,,,,,,,,,,,,,,,,001,8,2019_Jul_30_1402,viewing,3.1.2,60.00002759044396,
north.png,stims/wedding-28.1a.mp4,stims/wedding-28.1b.mp4,stims/wedding-28.2b.mp4,stims/wedding-28.3b.mp4,stims/wedding-28.4b.mp4,stims/wedding-28.5.mp4,stimsday2details/newpainting14.png,stimsday2details/painting28.png,stimsday2details/couple28.png,stimsday2details/newperson26.png,stimsday2details/gift28.png,stimsday2details/new26.png,stimsday2details/n28.png,stimsday2details/cn28.png,stimsday2details/ct28.png,stimsday2details/t28.png,0,1,1,1,,,,,,,,,,,,,0,0,0,0,,,,,,,,,,,,,,,,,,,,,,,,,,,,,,,None,None,None,None,None,None,None,None,None,None,None,None,None,None,None,None,None,None,None,,None,None,None,,None,None,,,,,,,,,,,,,,,,,,,,,,,,,,,,,,,,,,,,,,,,,,,,,,,,,,,001,8,2019_Jul_30_1402,viewing,3.1.2,60.00002759044396,
north.png,stims/wedding-28.1a.mp4,stims/wedding-28.1b.mp4,stims/wedding-28.2b.mp4,stims/wedding-28.3b.mp4,stims/wedding-28.4b.mp4,stims/wedding-28.5.mp4,stimsday2details/newpainting14.png,stimsday2details/painting28.png,stimsday2details/couple28.png,stimsday2details/newperson26.png,stimsday2details/gift28.png,stimsday2details/new26.png,stimsday2details/n28.png,stimsday2details/cn28.png,stimsday2details/ct28.png,stimsday2details/t28.png,0,1,1,1,,,,,,,,,,,,,,,,,,,,,,,,,,,,,,,,,,,,,,,,,,,,,,,,,,,,,,,,,,,,,,,,,,,,,,,,,3.149698022753e-05,None,1,1.0307124400278553,326.8610886129318,None,326.8610886129318,None,326.8610886129318,None,328.8394606919028,None,2,0.7853545509278774,328.8394606919028,None,328.8394606919028,None,330.83943053195253,None,330.83943053195253,None,1,0.7687282650731504,330.83943053195253,None,2,1.0522418759064749,332.83940610592254,None,332.83940610592254,None,332.83940610592254,None,334.83939329895657,None,334.83939329895657,None,1,0.8351925410097465,334.83939329895657,None,336.8393011559965,None,336.8393011559965,None,1,0.7019974789582193,336.8393011559965,None,001,8,2019_Jul_30_1402,viewing,3.1.2,60.00002759044396,
north.png,stims/wedding-6.1a.mp4,stims/wedding-6.1b.mp4,stims/wedding-6.2a.mp4,stims/wedding-6.3a.mp4,stims/wedding-6.4a.mp4,stims/wedding-6.5.mp4,stimsday2details/newegg13.png,stimsday2details/egg6.png,stimsday2details/couple6.png,stimsday2details/newperson27.png,stimsday2details/gift6.png,stimsday2details/new27.png,stimsday2details/cn6.png,stimsday2details/n6.png,stimsday2details/t6.png,stimsday2details/ct6.png,0,2,2,2,0,0,0,0,,,,,,,,,,,,,,,,,,,,,,,,,None,None,,,,,,,,,,,,,,,,,,,,,,,,,,,,,,,,,,,,,,,,,,,,,,,,,,,,,,,,,,,,,,,,,,,,,,,,,,,,,,,,,,,,,,,,,,,,,001,8,2019_Jul_30_1402,viewing,3.1.2,60.00002759044396,
north.png,stims/wedding-6.1a.mp4,stims/wedding-6.1b.mp4,stims/wedding-6.2a.mp4,stims/wedding-6.3a.mp4,stims/wedding-6.4a.mp4,stims/wedding-6.5.mp4,stimsday2details/newegg13.png,stimsday2details/egg6.png,stimsday2details/couple6.png,stimsday2details/newperson27.png,stimsday2details/gift6.png,stimsday2details/new27.png,stimsday2details/cn6.png,stimsday2details/n6.png,stimsday2details/t6.png,stimsday2details/ct6.png,0,2,2,2,,,,,0,0,0,0,,,,,,,,,,,,,,,,,,,,,,,338.90600474295206,None,,,,,,,,,,,,,,,,,,,,,,,,,,,,,,,,,,,,,,,,,,,,,,,,,,,,,,,,,,,,,,,,,,,,,,,,,,,,,,,,,,,,,,,,,,,001,8,2019_Jul_30_1402,viewing,3.1.2,60.00002759044396,
north.png,stims/wedding-6.1a.mp4,stims/wedding-6.1b.mp4,stims/wedding-6.2a.mp4,stims/wedding-6.3a.mp4,stims/wedding-6.4a.mp4,stims/wedding-6.5.mp4,stimsday2details/newegg13.png,stimsday2details/egg6.png,stimsday2details/couple6.png,stimsday2details/newperson27.png,stimsday2details/gift6.png,stimsday2details/new27.png,stimsday2details/cn6.png,stimsday2details/n6.png,stimsday2details/t6.png,stimsday2details/ct6.png,0,2,2,2,,,,,,,,,0,0,0,0,,,,,,,,,,,,,,,,,,,,,3.0180081500438973,None,349.00588114594575,373.98885103990324,373.98885103990324,None,382.9888180369744,399.9885923319962,399.9885923319962,422.9883110349765,422.9883110349765,446.9880243749358,446.9880243749358,None,,,,,,,,,,,,,,,,,,,,,,,,,,,,,,,,,,,,,,,,,,,,,,,,,,,,,,,,,,,,,,,,,,,,,,,,,,,,,001,8,2019_Jul_30_1402,viewing,3.1.2,60.00002759044396,
north.png,stims/wedding-6.1a.mp4,stims/wedding-6.1b.mp4,stims/wedding-6.2a.mp4,stims/wedding-6.3a.mp4,stims/wedding-6.4a.mp4,stims/wedding-6.5.mp4,stimsday2details/newegg13.png,stimsday2details/egg6.png,stimsday2details/couple6.png,stimsday2details/newperson27.png,stimsday2details/gift6.png,stimsday2details/new27.png,stimsday2details/cn6.png,stimsday2details/n6.png,stimsday2details/t6.png,stimsday2details/ct6.png,0,2,2,2,,,,,,,,,,,,,0,0,0,0,,,,,,,,,,,,,,,,,,,,,,,,,,,,,,,None,None,None,None,None,None,None,None,None,None,None,None,None,None,None,None,None,None,None,,None,None,None,,None,None,,,,,,,,,,,,,,,,,,,,,,,,,,,,,,,,,,,,,,,,,,,,,,,,,,,001,8,2019_Jul_30_1402,viewing,3.1.2,60.00002759044396,
north.png,stims/wedding-6.1a.mp4,stims/wedding-6.1b.mp4,stims/wedding-6.2a.mp4,stims/wedding-6.3a.mp4,stims/wedding-6.4a.mp4,stims/wedding-6.5.mp4,stimsday2details/newegg13.png,stimsday2details/egg6.png,stimsday2details/couple6.png,stimsday2details/newperson27.png,stimsday2details/gift6.png,stimsday2details/new27.png,stimsday2details/cn6.png,stimsday2details/n6.png,stimsday2details/t6.png,stimsday2details/ct6.png,0,2,2,2,,,,,,,,,,,,,,,,,,,,,,,,,,,,,,,,,,,,,,,,,,,,,,,,,,,,,,,,,,,,,,,,,,,,,,,,,3.573892172425985e-05,None,2,0.8689697850495577,470.80441045493353,None,470.80441045493353,None,470.80441045493353,None,472.8044968409231,None,2,0.6869412349769846,472.8044968409231,None,472.8044968409231,None,474.8044110919582,None,474.8044110919582,None,1,0.7352600630838424,474.8044110919582,None,1,0.8354021980194375,476.80444151489064,None,476.80444151489064,None,476.80444151489064,None,478.80434412590694,None,478.80434412590694,None,1,0.7002383579965681,478.80434412590694,None,480.80426818097476,None,480.80426818097476,None,1,0.7853467199020088,480.80426818097476,None,001,8,2019_Jul_30_1402,viewing,3.1.2,60.00002759044396,
south.png,stims/wedding-34.1a.mp4,stims/wedding-34.1b.mp4,stims/wedding-34.2a.mp4,stims/wedding-34.3b.mp4,stims/wedding-34.4a.mp4,stims/wedding-34.5.mp4,stimsday2details/newegg14.png,stimsday2details/egg34.png,stimsday2details/couple34.png,stimsday2details/newperson28.png,stimsday2details/new28.png,stimsday2details/gift34.png,stimsday2details/n34.png,stimsday2details/cn34.png,stimsday2details/ct34.png,stimsday2details/t34.png,0,3,3,3,0,0,0,0,,,,,,,,,,,,,,,,,,,,,,,,,482.8042537829606,None,,,,,,,,,,,,,,,,,,,,,,,,,,,,,,,,,,,,,,,,,,,,,,,,,,,,,,,,,,,,,,,,,,,,,,,,,,,,,,,,,,,,,,,,,,,,,001,8,2019_Jul_30_1402,viewing,3.1.2,60.00002759044396,
south.png,stims/wedding-34.1a.mp4,stims/wedding-34.1b.mp4,stims/wedding-34.2a.mp4,stims/wedding-34.3b.mp4,stims/wedding-34.4a.mp4,stims/wedding-34.5.mp4,stimsday2details/newegg14.png,stimsday2details/egg34.png,stimsday2details/couple34.png,stimsday2details/newperson28.png,stimsday2details/new28.png,stimsday2details/gift34.png,stimsday2details/n34.png,stimsday2details/cn34.png,stimsday2details/ct34.png,stimsday2details/t34.png,0,3,3,3,,,,,0,0,0,0,,,,,,,,,,,,,,,,,,,,,,,None,None,,,,,,,,,,,,,,,,,,,,,,,,,,,,,,,,,,,,,,,,,,,,,,,,,,,,,,,,,,,,,,,,,,,,,,,,,,,,,,,,,,,,,,,,,,,001,8,2019_Jul_30_1402,viewing,3.1.2,60.00002759044396,
south.png,stims/wedding-34.1a.mp4,stims/wedding-34.1b.mp4,stims/wedding-34.2a.mp4,stims/wedding-34.3b.mp4,stims/wedding-34.4a.mp4,stims/wedding-34.5.mp4,stimsday2details/newegg14.png,stimsday2details/egg34.png,stimsday2details/couple34.png,stimsday2details/newperson28.png,stimsday2details/new28.png,stimsday2details/gift34.png,stimsday2details/n34.png,stimsday2details/cn34.png,stimsday2details/ct34.png,stimsday2details/t34.png,0,3,3,3,,,,,,,,,0,0,0,0,,,,,,,,,,,,,,,,,,,,,3.0765581590821967,None,493.054126289906,517.9871648818953,518.0038244329626,526.9870578940026,527.0037110719131,None,544.003507366986,566.9865980419563,567.0032255279366,590.9862387129106,591.0029283209005,None,,,,,,,,,,,,,,,,,,,,,,,,,,,,,,,,,,,,,,,,,,,,,,,,,,,,,,,,,,,,,,,,,,,,,,,,,,,,,001,8,2019_Jul_30_1402,viewing,3.1.2,60.00002759044396,
south.png,stims/wedding-34.1a.mp4,stims/wedding-34.1b.mp4,stims/wedding-34.2a.mp4,stims/wedding-34.3b.mp4,stims/wedding-34.4a.mp4,stims/wedding-34.5.mp4,stimsday2details/newegg14.png,stimsday2details/egg34.png,stimsday2details/couple34.png,stimsday2details/newperson28.png,stimsday2details/new28.png,stimsday2details/gift34.png,stimsday2details/n34.png,stimsday2details/cn34.png,stimsday2details/ct34.png,stimsday2details/t34.png,0,3,3,3,,,,,,,,,,,,,0,0,0,0,,,,,,,,,,,,,,,,,,,,,,,,,,,,,,,None,None,None,None,None,None,None,None,None,None,None,None,None,None,None,None,None,None,None,,None,None,None,,None,None,,,,,,,,,,,,,,,,,,,,,,,,,,,,,,,,,,,,,,,,,,,,,,,,,,,001,8,2019_Jul_30_1402,viewing,3.1.2,60.00002759044396,
south.png,stims/wedding-34.1a.mp4,stims/wedding-34.1b.mp4,stims/wedding-34.2a.mp4,stims/wedding-34.3b.mp4,stims/wedding-34.4a.mp4,stims/wedding-34.5.mp4,stimsday2details/newegg14.png,stimsday2details/egg34.png,stimsday2details/couple34.png,stimsday2details/newperson28.png,stimsday2details/new28.png,stimsday2details/gift34.png,stimsday2details/n34.png,stimsday2details/cn34.png,stimsday2details/ct34.png,stimsday2details/t34.png,0,3,3,3,,,,,,,,,,,,,,,,,,,,,,,,,,,,,,,,,,,,,,,,,,,,,,,,,,,,,,,,,,,,,,,,,,,,,,,,,3.809202462434769e-05,None,1,1.202323997975327,614.5360444689868,None,614.5360444689868,None,614.5360444689868,None,616.5359484939836,None,2,0.7355395080521703,616.5359484939836,None,616.5359484939836,None,618.5359382729512,None,618.5359382729512,None,1,0.5688845420954749,618.5359382729512,None,2,0.9854868199909106,620.5359012379777,None,620.5359012379777,None,620.5359012379777,None,622.5358175259316,None,622.5358175259316,None,2,1.035134559031576,622.5358175259316,None,624.5358538719593,None,624.5358538719593,None,None,,624.5358538719593,None,001,8,2019_Jul_30_1402,viewing,3.1.2,60.00002759044396,
south.png,stims/wedding-19.1a.mp4,stims/wedding-19.1b.mp4,stims/wedding-19.2b.mp4,stims/wedding-19.3a.mp4,stims/wedding-19.4b.mp4,stims/wedding-19.5.mp4,stimsday2details/newpainting15.png,stimsday2details/painting19.png,stimsday2details/couple19.png,stimsday2details/newperson29.png,stimsday2details/gift19.png,stimsday2details/new29.png,stimsday2details/cn19.png,stimsday2details/n19.png,stimsday2details/t19.png,stimsday2details/ct19.png,0,4,4,4,0,0,0,0,,,,,,,,,,,,,,,,,,,,,,,,,626.5358255159808,None,,,,,,,,,,,,,,,,,,,,,,,,,,,,,,,,,,,,,,,,,,,,,,,,,,,,,,,,,,,,,,,,,,,,,,,,,,,,,,,,,,,,,,,,,,,,,001,8,2019_Jul_30_1402,viewing,3.1.2,60.00002759044396,
south.png,stims/wedding-19.1a.mp4,stims/wedding-19.1b.mp4,stims/wedding-19.2b.mp4,stims/wedding-19.3a.mp4,stims/wedding-19.4b.mp4,stims/wedding-19.5.mp4,stimsday2details/newpainting15.png,stimsday2details/painting19.png,stimsday2details/couple19.png,stimsday2details/newperson29.png,stimsday2details/gift19.png,stimsday2details/new29.png,stimsday2details/cn19.png,stimsday2details/n19.png,stimsday2details/t19.png,stimsday2details/ct19.png,0,4,4,4,,,,,0,0,0,0,,,,,,,,,,,,,,,,,,,,,,,None,None,,,,,,,,,,,,,,,,,,,,,,,,,,,,,,,,,,,,,,,,,,,,,,,,,,,,,,,,,,,,,,,,,,,,,,,,,,,,,,,,,,,,,,,,,,,001,8,2019_Jul_30_1402,viewing,3.1.2,60.00002759044396,
south.png,stims/wedding-19.1a.mp4,stims/wedding-19.1b.mp4,stims/wedding-19.2b.mp4,stims/wedding-19.3a.mp4,stims/wedding-19.4b.mp4,stims/wedding-19.5.mp4,stimsday2details/newpainting15.png,stimsday2details/painting19.png,stimsday2details/couple19.png,stimsday2details/newperson29.png,stimsday2details/gift19.png,stimsday2details/new29.png,stimsday2details/cn19.png,stimsday2details/n19.png,stimsday2details/t19.png,stimsday2details/ct19.png,0,4,4,4,,,,,,,,,0,0,0,0,,,,,,,,,,,,,,,,,,,,,2.9813379930565134,None,636.7524325929116,661.7687269169837,661.7854360969504,None,670.7852900209837,687.801748267957,687.801748267957,710.7681315758964,710.7847962819505,None,734.7845017350046,None,,,,,,,,,,,,,,,,,,,,,,,,,,,,,,,,,,,,,,,,,,,,,,,,,,,,,,,,,,,,,,,,,,,,,,,,,,,,,001,8,2019_Jul_30_1402,viewing,3.1.2,60.00002759044396,
south.png,stims/wedding-19.1a.mp4,stims/wedding-19.1b.mp4,stims/wedding-19.2b.mp4,stims/wedding-19.3a.mp4,stims/wedding-19.4b.mp4,stims/wedding-19.5.mp4,stimsday2details/newpainting15.png,stimsday2details/painting19.png,stimsday2details/couple19.png,stimsday2details/newperson29.png,stimsday2details/gift19.png,stimsday2details/new29.png,stimsday2details/cn19.png,stimsday2details/n19.png,stimsday2details/t19.png,stimsday2details/ct19.png,0,4,4,4,,,,,,,,,,,,,0,0,0,0,,,,,,,,,,,,,,,,,,,,,,,,,,,,,,,None,None,None,None,None,None,None,None,None,None,None,None,None,None,None,None,None,None,None,,None,None,None,,None,None,,,,,,,,,,,,,,,,,,,,,,,,,,,,,,,,,,,,,,,,,,,,,,,,,,,001,8,2019_Jul_30_1402,viewing,3.1.2,60.00002759044396,
south.png,stims/wedding-19.1a.mp4,stims/wedding-19.1b.mp4,stims/wedding-19.2b.mp4,stims/wedding-19.3a.mp4,stims/wedding-19.4b.mp4,stims/wedding-19.5.mp4,stimsday2details/newpainting15.png,stimsday2details/painting19.png,stimsday2details/couple19.png,stimsday2details/newperson29.png,stimsday2details/gift19.png,stimsday2details/new29.png,stimsday2details/cn19.png,stimsday2details/n19.png,stimsday2details/t19.png,stimsday2details/ct19.png,0,4,4,4,,,,,,,,,,,,,,,,,,,,,,,,,,,,,,,,,,,,,,,,,,,,,,,,,,,,,,,,,,,,,,,,,,,,,,,,,3.2495008781552315e-05,None,2,0.6675509830238298,759.0858110529371,None,759.0858110529371,None,759.0858110529371,None,761.0675179549726,None,2,0.8688384150154889,761.0675179549726,None,761.0675179549726,None,763.0674968699459,None,763.0674968699459,None,1,0.65205905190669,763.0674968699459,None,1,0.9852119099814445,765.0674724410055,None,765.0674724410055,None,765.0674724410055,None,767.0674476939021,None,767.0674476939021,None,1,1.0522749669617042,767.0674476939021,None,769.0673640299356,None,769.0673640299356,None,2,0.7353576669702306,769.0673640299356,None,001,8,2019_Jul_30_1402,viewing,3.1.2,60.00002759044396,
north.png,stims/wedding-2.1a.mp4,stims/wedding-2.1b.mp4,stims/wedding-2.2b.mp4,stims/wedding-2.3b.mp4,stims/wedding-2.4b.mp4,stims/wedding-2.5.mp4,stimsday2details/newpainting16.png,stimsday2details/painting2.png,stimsday2details/couple2.png,stimsday2details/newperson30.png,stimsday2details/new30.png,stimsday2details/gift2.png,stimsday2details/n2.png,stimsday2details/cn2.png,stimsday2details/t2.png,stimsday2details/ct2.png,0,5,5,5,0,0,0,0,,,,,,,,,,,,,,,,,,,,,,,,,None,None,,,,,,,,,,,,,,,,,,,,,,,,,,,,,,,,,,,,,,,,,,,,,,,,,,,,,,,,,,,,,,,,,,,,,,,,,,,,,,,,,,,,,,,,,,,,,001,8,2019_Jul_30_1402,viewing,3.1.2,60.00002759044396,
north.png,stims/wedding-2.1a.mp4,stims/wedding-2.1b.mp4,stims/wedding-2.2b.mp4,stims/wedding-2.3b.mp4,stims/wedding-2.4b.mp4,stims/wedding-2.5.mp4,stimsday2details/newpainting16.png,stimsday2details/painting2.png,stimsday2details/couple2.png,stimsday2details/newperson30.png,stimsday2details/new30.png,stimsday2details/gift2.png,stimsday2details/n2.png,stimsday2details/cn2.png,stimsday2details/t2.png,stimsday2details/ct2.png,0,5,5,5,,,,,0,0,0,0,,,,,,,,,,,,,,,,,,,,,,,771.2006678909529,None,,,,,,,,,,,,,,,,,,,,,,,,,,,,,,,,,,,,,,,,,,,,,,,,,,,,,,,,,,,,,,,,,,,,,,,,,,,,,,,,,,,,,,,,,,,001,8,2019_Jul_30_1402,viewing,3.1.2,60.00002759044396,
north.png,stims/wedding-2.1a.mp4,stims/wedding-2.1b.mp4,stims/wedding-2.2b.mp4,stims/wedding-2.3b.mp4,stims/wedding-2.4b.mp4,stims/wedding-2.5.mp4,stimsday2details/newpainting16.png,stimsday2details/painting2.png,stimsday2details/couple2.png,stimsday2details/newperson30.png,stimsday2details/new30.png,stimsday2details/gift2.png,stimsday2details/n2.png,stimsday2details/cn2.png,stimsday2details/t2.png,stimsday2details/ct2.png,0,5,5,5,,,,,,,,,0,0,0,0,,,,,,,,,,,,,,,,,,,,,2.971308076987043,None,781.3172683418961,None,806.3503027509432,None,815.3501116349362,None,832.3499882759061,855.3498928209301,855.3498928209301,879.349425475928,879.349425475928,None,,,,,,,,,,,,,,,,,,,,,,,,,,,,,,,,,,,,,,,,,,,,,,,,,,,,,,,,,,,,,,,,,,,,,,,,,,,,,001,8,2019_Jul_30_1402,viewing,3.1.2,60.00002759044396,
north.png,stims/wedding-2.1a.mp4,stims/wedding-2.1b.mp4,stims/wedding-2.2b.mp4,stims/wedding-2.3b.mp4,stims/wedding-2.4b.mp4,stims/wedding-2.5.mp4,stimsday2details/newpainting16.png,stimsday2details/painting2.png,stimsday2details/couple2.png,stimsday2details/newperson30.png,stimsday2details/new30.png,stimsday2details/gift2.png,stimsday2details/n2.png,stimsday2details/cn2.png,stimsday2details/t2.png,stimsday2details/ct2.png,0,5,5,5,,,,,,,,,,,,,0,0,0,0,,,,,,,,,,,,,,,,,,,,,,,,,,,,,,,None,None,None,None,None,None,None,None,None,None,None,None,None,None,None,None,None,None,None,,None,None,None,,None,None,,,,,,,,,,,,,,,,,,,,,,,,,,,,,,,,,,,,,,,,,,,,,,,,,,,001,8,2019_Jul_30_1402,viewing,3.1.2,60.00002759044396,
north.png,stims/wedding-2.1a.mp4,stims/wedding-2.1b.mp4,stims/wedding-2.2b.mp4,stims/wedding-2.3b.mp4,stims/wedding-2.4b.mp4,stims/wedding-2.5.mp4,stimsday2details/newpainting16.png,stimsday2details/painting2.png,stimsday2details/couple2.png,stimsday2details/newperson30.png,stimsday2details/new30.png,stimsday2details/gift2.png,stimsday2details/n2.png,stimsday2details/cn2.png,stimsday2details/t2.png,stimsday2details/ct2.png,0,5,5,5,,,,,,,,,,,,,,,,,,,,,,,,,,,,,,,,,,,,,,,,,,,,,,,,,,,,,,,,,,,,,,,,,,,,,,,,,4.172499757260084e-05,None,1,0.9687018180266023,903.2657894019503,None,903.2657894019503,None,903.2657894019503,None,905.2491132469149,None,2,0.618657311075367,905.2491132469149,None,905.2491132469149,None,907.2490933889057,None,907.2490933889057,None,1,0.6352836539736018,907.2490933889057,None,1,0.8021257689688355,909.2490528129274,None,909.2490528129274,None,909.2490528129274,None,911.2490250609117,None,911.2490250609117,None,2,1.5685570690548047,911.2490250609117,None,913.2490010629408,None,913.2490010629408,None,2,1.5352523589972407,913.2490010629408,None,001,8,2019_Jul_30_1402,viewing,3.1.2,60.00002759044396,
north.png,stims/wedding-23.1a.mp4,stims/wedding-23.1b.mp4,stims/wedding-23.2a.mp4,stims/wedding-23.3a.mp4,stims/wedding-23.4a.mp4,stims/wedding-23.5.mp4,stimsday2details/egg23.png,stimsday2details/newegg15.png,stimsday2details/newperson31.png,stimsday2details/couple23.png,stimsday2details/new31.png,stimsday2details/gift23.png,stimsday2details/n23.png,stimsday2details/cn23.png,stimsday2details/ct23.png,stimsday2details/t23.png,0,6,6,6,0,0,0,0,,,,,,,,,,,,,,,,,,,,,,,,,None,None,,,,,,,,,,,,,,,,,,,,,,,,,,,,,,,,,,,,,,,,,,,,,,,,,,,,,,,,,,,,,,,,,,,,,,,,,,,,,,,,,,,,,,,,,,,,,001,8,2019_Jul_30_1402,viewing,3.1.2,60.00002759044396,
north.png,stims/wedding-23.1a.mp4,stims/wedding-23.1b.mp4,stims/wedding-23.2a.mp4,stims/wedding-23.3a.mp4,stims/wedding-23.4a.mp4,stims/wedding-23.5.mp4,stimsday2details/egg23.png,stimsday2details/newegg15.png,stimsday2details/newperson31.png,stimsday2details/couple23.png,stimsday2details/new31.png,stimsday2details/gift23.png,stimsday2details/n23.png,stimsday2details/cn23.png,stimsday2details/ct23.png,stimsday2details/t23.png,0,6,6,6,,,,,0,0,0,0,,,,,,,,,,,,,,,,,,,,,,,915.4156484479317,None,,,,,,,,,,,,,,,,,,,,,,,,,,,,,,,,,,,,,,,,,,,,,,,,,,,,,,,,,,,,,,,,,,,,,,,,,,,,,,,,,,,,,,,,,,,001,8,2019_Jul_30_1402,viewing,3.1.2,60.00002759044396,
north.png,stims/wedding-23.1a.mp4,stims/wedding-23.1b.mp4,stims/wedding-23.2a.mp4,stims/wedding-23.3a.mp4,stims/wedding-23.4a.mp4,stims/wedding-23.5.mp4,stimsday2details/egg23.png,stimsday2details/newegg15.png,stimsday2details/newperson31.png,stimsday2details/couple23.png,stimsday2details/new31.png,stimsday2details/gift23.png,stimsday2details/n23.png,stimsday2details/cn23.png,stimsday2details/ct23.png,stimsday2details/t23.png,0,6,6,6,,,,,,,,,0,0,0,0,,,,,,,,,,,,,,,,,,,,,2.9562935199355707,None,925.7655154119711,950.798540324904,950.8151456048945,None,959.8151028379798,976.7982223159634,976.8148913129698,999.7979467909317,999.8145533939824,1023.7976017869078,1023.8143196488963,None,,,,,,,,,,,,,,,,,,,,,,,,,,,,,,,,,,,,,,,,,,,,,,,,,,,,,,,,,,,,,,,,,,,,,,,,,,,,,001,8,2019_Jul_30_1402,viewing,3.1.2,60.00002759044396,
north.png,stims/wedding-23.1a.mp4,stims/wedding-23.1b.mp4,stims/wedding-23.2a.mp4,stims/wedding-23.3a.mp4,stims/wedding-23.4a.mp4,stims/wedding-23.5.mp4,stimsday2details/egg23.png,stimsday2details/newegg15.png,stimsday2details/newperson31.png,stimsday2details/couple23.png,stimsday2details/new31.png,stimsday2details/gift23.png,stimsday2details/n23.png,stimsday2details/cn23.png,stimsday2details/ct23.png,stimsday2details/t23.png,0,6,6,6,,,,,,,,,,,,,0,0,0,0,,,,,,,,,,,,,,,,,,,,,,,,,,,,,,,None,None,None,None,None,None,None,None,None,None,None,None,None,None,None,None,None,None,None,,None,None,None,,None,None,,,,,,,,,,,,,,,,,,,,,,,,,,,,,,,,,,,,,,,,,,,,,,,,,,,001,8,2019_Jul_30_1402,viewing,3.1.2,60.00002759044396,
north.png,stims/wedding-23.1a.mp4,stims/wedding-23.1b.mp4,stims/wedding-23.2a.mp4,stims/wedding-23.3a.mp4,stims/wedding-23.4a.mp4,stims/wedding-23.5.mp4,stimsday2details/egg23.png,stimsday2details/newegg15.png,stimsday2details/newperson31.png,stimsday2details/couple23.png,stimsday2details/new31.png,stimsday2details/gift23.png,stimsday2details/n23.png,stimsday2details/cn23.png,stimsday2details/ct23.png,stimsday2details/t23.png,0,6,6,6,,,,,,,,,,,,,,,,,,,,,,,,,,,,,,,,,,,,,,,,,,,,,,,,,,,,,,,,,,,,,,,,,,,,,,,,,3.671704325824976e-05,None,1,0.681017327005975,1048.202189086005,None,1048.202189086005,None,1048.202189086005,None,1050.180667352979,None,1,1.0685579440323636,1050.180667352979,None,1050.180667352979,None,1052.1806360019837,None,1052.1806360019837,None,2,0.8354157370049506,1052.1806360019837,None,2,0.9856178540503606,1054.180613625911,None,1054.180613625911,None,1054.180613625911,None,1056.1805944480002,None,1056.1805944480002,None,2,0.7689555019605905,1056.1805944480002,None,1058.180566046969,None,1058.180566046969,None,1,0.4686208199709654,1058.180566046969,None,001,8,2019_Jul_30_1402,viewing,3.1.2,60.00002759044396,
south.png,stims/wedding-17.1a.mp4,stims/wedding-17.1b.mp4,stims/wedding-17.2b.mp4,stims/wedding-17.3a.mp4,stims/wedding-17.4b.mp4,stims/wedding-17.5.mp4,stimsday2details/painting17.png,stimsday2details/newpainting17.png,stimsday2details/newperson32.png,stimsday2details/couple17.png,stimsday2details/gift17.png,stimsday2details/new32.png,stimsday2details/n17.png,stimsday2details/cn17.png,stimsday2details/t17.png,stimsday2details/ct17.png,0,7,7,7,0,0,0,0,,,,,,,,,,,,,,,,,,,,,,,,,1060.180558049935,None,,,,,,,,,,,,,,,,,,,,,,,,,,,,,,,,,,,,,,,,,,,,,,,,,,,,,,,,,,,,,,,,,,,,,,,,,,,,,,,,,,,,,,,,,,,,,001,8,2019_Jul_30_1402,viewing,3.1.2,60.00002759044396,
south.png,stims/wedding-17.1a.mp4,stims/wedding-17.1b.mp4,stims/wedding-17.2b.mp4,stims/wedding-17.3a.mp4,stims/wedding-17.4b.mp4,stims/wedding-17.5.mp4,stimsday2details/painting17.png,stimsday2details/newpainting17.png,stimsday2details/newperson32.png,stimsday2details/couple17.png,stimsday2details/gift17.png,stimsday2details/new32.png,stimsday2details/n17.png,stimsday2details/cn17.png,stimsday2details/t17.png,stimsday2details/ct17.png,0,7,7,7,,,,,0,0,0,0,,,,,,,,,,,,,,,,,,,,,,,None,None,,,,,,,,,,,,,,,,,,,,,,,,,,,,,,,,,,,,,,,,,,,,,,,,,,,,,,,,,,,,,,,,,,,,,,,,,,,,,,,,,,,,,,,,,,,001,8,2019_Jul_30_1402,viewing,3.1.2,60.00002759044396,
south.png,stims/wedding-17.1a.mp4,stims/wedding-17.1b.mp4,stims/wedding-17.2b.mp4,stims/wedding-17.3a.mp4,stims/wedding-17.4b.mp4,stims/wedding-17.5.mp4,stimsday2details/painting17.png,stimsday2details/newpainting17.png,stimsday2details/newperson32.png,stimsday2details/couple17.png,stimsday2details/gift17.png,stimsday2details/new32.png,stimsday2details/n17.png,stimsday2details/cn17.png,stimsday2details/t17.png,stimsday2details/ct17.png,0,7,7,7,,,,,,,,,0,0,0,0,,,,,,,,,,,,,,,,,,,,,2.9347670360002667,None,1070.4810369699262,None,1095.546780403005,None,1104.5466726958985,None,1121.5631310229655,None,1144.562852442963,None,1168.562546769972,None,,,,,,,,,,,,,,,,,,,,,,,,,,,,,,,,,,,,,,,,,,,,,,,,,,,,,,,,,,,,,,,,,,,,,,,,,,,,,001,8,2019_Jul_30_1402,viewing,3.1.2,60.00002759044396,
south.png,stims/wedding-17.1a.mp4,stims/wedding-17.1b.mp4,stims/wedding-17.2b.mp4,stims/wedding-17.3a.mp4,stims/wedding-17.4b.mp4,stims/wedding-17.5.mp4,stimsday2details/painting17.png,stimsday2details/newpainting17.png,stimsday2details/newperson32.png,stimsday2details/couple17.png,stimsday2details/gift17.png,stimsday2details/new32.png,stimsday2details/n17.png,stimsday2details/cn17.png,stimsday2details/t17.png,stimsday2details/ct17.png,0,7,7,7,,,,,,,,,,,,,0,0,0,0,,,,,,,,,,,,,,,,,,,,,,,,,,,,,,,None,None,None,None,None,None,None,None,None,None,None,None,None,None,None,None,None,None,None,,None,None,None,,None,None,,,,,,,,,,,,,,,,,,,,,,,,,,,,,,,,,,,,,,,,,,,,,,,,,,,001,8,2019_Jul_30_1402,viewing,3.1.2,60.00002759044396,
south.png,stims/wedding-17.1a.mp4,stims/wedding-17.1b.mp4,stims/wedding-17.2b.mp4,stims/wedding-17.3a.mp4,stims/wedding-17.4b.mp4,stims/wedding-17.5.mp4,stimsday2details/painting17.png,stimsday2details/newpainting17.png,stimsday2details/newperson32.png,stimsday2details/couple17.png,stimsday2details/gift17.png,stimsday2details/new32.png,stimsday2details/n17.png,stimsday2details/cn17.png,stimsday2details/t17.png,stimsday2details/ct17.png,0,7,7,7,,,,,,,,,,,,,,,,,,,,,,,,,,,,,,,,,,,,,,,,,,,,,,,,,,,,,,,,,,,,,,,,,,,,,,,,,4.198902752250433e-05,None,1,1.351795454043895,1192.3956072609872,None,1192.3956072609872,None,1192.3956072609872,None,1194.3955768969608,None,1,0.9185236709890887,1194.3955768969608,None,1194.3955768969608,None,1196.3955498349387,None,1196.3955498349387,None,2,0.6854969769483432,1196.3955498349387,None,1,0.9522513840347528,1198.3955361449625,None,1198.3955361449625,None,1198.3955361449625,None,1200.3955070299562,None,1200.3955070299562,None,1,0.7852689960272983,1200.3955070299562,None,1202.3954774379963,None,1202.3954774379963,None,1,0.9169826359720901,1202.3954774379963,None,001,8,2019_Jul_30_1402,viewing,3.1.2,60.00002759044396,
south.png,stims/wedding-22.1a.mp4,stims/wedding-22.1b.mp4,stims/wedding-22.2a.mp4,stims/wedding-22.3b.mp4,stims/wedding-22.4a.mp4,stims/wedding-22.5.mp4,stimsday2details/newegg16.png,stimsday2details/egg22.png,stimsday2details/newperson33.png,stimsday2details/couple22.png,stimsday2details/gift22.png,stimsday2details/new33.png,stimsday2details/n22.png,stimsday2details/cn22.png,stimsday2details/t22.png,stimsday2details/ct22.png,0,8,8,8,0,0,0,0,,,,,,,,,,,,,,,,,,,,,,,,,1204.3954517059028,None,,,,,,,,,,,,,,,,,,,,,,,,,,,,,,,,,,,,,,,,,,,,,,,,,,,,,,,,,,,,,,,,,,,,,,,,,,,,,,,,,,,,,,,,,,,,,001,8,2019_Jul_30_1402,viewing,3.1.2,60.00002759044396,
south.png,stims/wedding-22.1a.mp4,stims/wedding-22.1b.mp4,stims/wedding-22.2a.mp4,stims/wedding-22.3b.mp4,stims/wedding-22.4a.mp4,stims/wedding-22.5.mp4,stimsday2details/newegg16.png,stimsday2details/egg22.png,stimsday2details/newperson33.png,stimsday2details/couple22.png,stimsday2details/gift22.png,stimsday2details/new33.png,stimsday2details/n22.png,stimsday2details/cn22.png,stimsday2details/t22.png,stimsday2details/ct22.png,0,8,8,8,,,,,0,0,0,0,,,,,,,,,,,,,,,,,,,,,,,None,None,,,,,,,,,,,,,,,,,,,,,,,,,,,,,,,,,,,,,,,,,,,,,,,,,,,,,,,,,,,,,,,,,,,,,,,,,,,,,,,,,,,,,,,,,,,001,8,2019_Jul_30_1402,viewing,3.1.2,60.00002759044396,
south.png,stims/wedding-22.1a.mp4,stims/wedding-22.1b.mp4,stims/wedding-22.2a.mp4,stims/wedding-22.3b.mp4,stims/wedding-22.4a.mp4,stims/wedding-22.5.mp4,stimsday2details/newegg16.png,stimsday2details/egg22.png,stimsday2details/newperson33.png,stimsday2details/couple22.png,stimsday2details/gift22.png,stimsday2details/new33.png,stimsday2details/n22.png,stimsday2details/cn22.png,stimsday2details/t22.png,stimsday2details/ct22.png,0,8,8,8,,,,,,,,,0,0,0,0,,,,,,,,,,,,,,,,,,,,,3.2075974869076163,None,1215.011987693957,1239.7950190789998,1239.8116901939502,None,1248.811586027965,1265.7947094889823,1265.8113730519544,1288.7944250639994,1288.8110914489953,1312.7941315759672,1312.8108060349477,None,,,,,,,,,,,,,,,,,,,,,,,,,,,,,,,,,,,,,,,,,,,,,,,,,,,,,,,,,,,,,,,,,,,,,,,,,,,,,001,8,2019_Jul_30_1402,viewing,3.1.2,60.00002759044396,
south.png,stims/wedding-22.1a.mp4,stims/wedding-22.1b.mp4,stims/wedding-22.2a.mp4,stims/wedding-22.3b.mp4,stims/wedding-22.4a.mp4,stims/wedding-22.5.mp4,stimsday2details/newegg16.png,stimsday2details/egg22.png,stimsday2details/newperson33.png,stimsday2details/couple22.png,stimsday2details/gift22.png,stimsday2details/new33.png,stimsday2details/n22.png,stimsday2details/cn22.png,stimsday2details/t22.png,stimsday2details/ct22.png,0,8,8,8,,,,,,,,,,,,,0,0,0,0,,,,,,,,,,,,,,,,,,,,,,,,,,,,,,,None,None,None,None,None,None,None,None,None,None,None,None,None,None,None,None,None,None,None,,None,None,None,,None,None,,,,,,,,,,,,,,,,,,,,,,,,,,,,,,,,,,,,,,,,,,,,,,,,,,,001,8,2019_Jul_30_1402,viewing,3.1.2,60.00002759044396,
south.png,stims/wedding-22.1a.mp4,stims/wedding-22.1b.mp4,stims/wedding-22.2a.mp4,stims/wedding-22.3b.mp4,stims/wedding-22.4a.mp4,stims/wedding-22.5.mp4,stimsday2details/newegg16.png,stimsday2details/egg22.png,stimsday2details/newperson33.png,stimsday2details/couple22.png,stimsday2details/gift22.png,stimsday2details/new33.png,stimsday2details/n22.png,stimsday2details/cn22.png,stimsday2details/t22.png,stimsday2details/ct22.png,0,8,8,8,,,,,,,,,,,,,,,,,,,,,,,,,,,,,,,,,,,,,,,,,,,,,,,,,,,,,,,,,,,,,,,,,,,,,,,,,4.169705789536238e-05,None,1,0.7685400029877201,1336.7605710289208,None,1336.7605710289208,None,1336.7605710289208,None,1338.7604816659587,None,2,0.7523972139460966,1338.7604816659587,None,1338.7604816659587,None,1340.760463808896,None,1340.760463808896,None,2,0.8190275200176984,1340.760463808896,None,1,1.0354362460784614,1342.7604428509949,None,1342.7604428509949,None,1342.7604428509949,None,1344.7604165649973,None,1344.7604165649973,None,1,0.7021707349922508,1344.7604165649973,None,1346.7603624269832,None,1346.7603624269832,None,2,0.768868388957344,1346.7603624269832,None,001,8,2019_Jul_30_1402,viewing,3.1.2,60.00002759044396,
north.png,stims/wedding-20.1a.mp4,stims/wedding-20.1b.mp4,stims/wedding-20.2a.mp4,stims/wedding-20.3a.mp4,stims/wedding-20.4a.mp4,stims/wedding-20.5.mp4,stimsday2details/egg20.png,stimsday2details/newegg17.png,stimsday2details/couple20.png,stimsday2details/newperson34.png,stimsday2details/new34.png,stimsday2details/gift20.png,stimsday2details/n20.png,stimsday2details/cn20.png,stimsday2details/ct20.png,stimsday2details/t20.png,0,9,9,9,0,0,0,0,,,,,,,,,,,,,,,,,,,,,,,,,None,None,,,,,,,,,,,,,,,,,,,,,,,,,,,,,,,,,,,,,,,,,,,,,,,,,,,,,,,,,,,,,,,,,,,,,,,,,,,,,,,,,,,,,,,,,,,,,001,8,2019_Jul_30_1402,viewing,3.1.2,60.00002759044396,
north.png,stims/wedding-20.1a.mp4,stims/wedding-20.1b.mp4,stims/wedding-20.2a.mp4,stims/wedding-20.3a.mp4,stims/wedding-20.4a.mp4,stims/wedding-20.5.mp4,stimsday2details/egg20.png,stimsday2details/newegg17.png,stimsday2details/couple20.png,stimsday2details/newperson34.png,stimsday2details/new34.png,stimsday2details/gift20.png,stimsday2details/n20.png,stimsday2details/cn20.png,stimsday2details/ct20.png,stimsday2details/t20.png,0,9,9,9,,,,,0,0,0,0,,,,,,,,,,,,,,,,,,,,,,,1349.126961403992,None,,,,,,,,,,,,,,,,,,,,,,,,,,,,,,,,,,,,,,,,,,,,,,,,,,,,,,,,,,,,,,,,,,,,,,,,,,,,,,,,,,,,,,,,,,,001,8,2019_Jul_30_1402,viewing,3.1.2,60.00002759044396,
north.png,stims/wedding-20.1a.mp4,stims/wedding-20.1b.mp4,stims/wedding-20.2a.mp4,stims/wedding-20.3a.mp4,stims/wedding-20.4a.mp4,stims/wedding-20.5.mp4,stimsday2details/egg20.png,stimsday2details/newegg17.png,stimsday2details/couple20.png,stimsday2details/newperson34.png,stimsday2details/new34.png,stimsday2details/gift20.png,stimsday2details/n20.png,stimsday2details/cn20.png,stimsday2details/ct20.png,stimsday2details/t20.png,0,9,9,9,,,,,,,,,0,0,0,0,,,,,,,,,,,,,,,,,,,,,3.0099859569454566,None,1359.3769681499107,1384.3765935869887,1384.3765935869887,None,1393.3764909419697,None,1410.376283800928,1433.3760059399065,1433.3760059399065,1457.3757081319345,1457.3757081319345,None,,,,,,,,,,,,,,,,,,,,,,,,,,,,,,,,,,,,,,,,,,,,,,,,,,,,,,,,,,,,,,,,,,,,,,,,,,,,,001,8,2019_Jul_30_1402,viewing,3.1.2,60.00002759044396,
north.png,stims/wedding-20.1a.mp4,stims/wedding-20.1b.mp4,stims/wedding-20.2a.mp4,stims/wedding-20.3a.mp4,stims/wedding-20.4a.mp4,stims/wedding-20.5.mp4,stimsday2details/egg20.png,stimsday2details/newegg17.png,stimsday2details/couple20.png,stimsday2details/newperson34.png,stimsday2details/new34.png,stimsday2details/gift20.png,stimsday2details/n20.png,stimsday2details/cn20.png,stimsday2details/ct20.png,stimsday2details/t20.png,0,9,9,9,,,,,,,,,,,,,0,0,0,0,,,,,,,,,,,,,,,,,,,,,,,,,,,,,,,None,None,None,None,None,None,None,None,None,None,None,None,None,None,None,None,None,None,None,,None,None,None,,None,None,,,,,,,,,,,,,,,,,,,,,,,,,,,,,,,,,,,,,,,,,,,,,,,,,,,001,8,2019_Jul_30_1402,viewing,3.1.2,60.00002759044396,
north.png,stims/wedding-20.1a.mp4,stims/wedding-20.1b.mp4,stims/wedding-20.2a.mp4,stims/wedding-20.3a.mp4,stims/wedding-20.4a.mp4,stims/wedding-20.5.mp4,stimsday2details/egg20.png,stimsday2details/newegg17.png,stimsday2details/couple20.png,stimsday2details/newperson34.png,stimsday2details/new34.png,stimsday2details/gift20.png,stimsday2details/n20.png,stimsday2details/cn20.png,stimsday2details/ct20.png,stimsday2details/t20.png,0,9,9,9,,,,,,,,,,,,,,,,,,,,,,,,,,,,,,,,,,,,,,,,,,,,,,,,,,,,,,,,,,,,,,,,,,,,,,,,,3.630900755524635e-05,None,1,0.5828663150314242,1480.3618331439793,None,1480.3618331439793,None,1480.3618331439793,None,1482.3420055049937,None,1,1.0020277119474486,1482.3420055049937,None,1482.3420055049937,None,1484.341991221998,None,1484.341991221998,None,1,0.6688504489138722,1484.341991221998,None,None,,1486.341955824988,None,1486.341955824988,None,1486.341955824988,None,1488.3420320790028,None,1488.3420320790028,None,2,0.9350814269855618,1488.3420320790028,None,1490.3420087149134,None,1490.3420087149134,None,2,1.235517964931205,1490.3420087149134,None,001,8,2019_Jul_30_1402,viewing,3.1.2,60.00002759044396,
north.png,stims/wedding-38.1a.mp4,stims/wedding-38.1b.mp4,stims/wedding-38.2b.mp4,stims/wedding-38.3b.mp4,stims/wedding-38.4b.mp4,stims/wedding-38.5.mp4,stimsday2details/newpainting18.png,stimsday2details/painting38.png,stimsday2details/couple38.png,stimsday2details/newperson35.png,stimsday2details/new35.png,stimsday2details/gift38.png,stimsday2details/cn38.png,stimsday2details/n38.png,stimsday2details/ct38.png,stimsday2details/t38.png,0,10,10,10,0,0,0,0,,,,,,,,,,,,,,,,,,,,,,,,,None,None,,,,,,,,,,,,,,,,,,,,,,,,,,,,,,,,,,,,,,,,,,,,,,,,,,,,,,,,,,,,,,,,,,,,,,,,,,,,,,,,,,,,,,,,,,,,,001,8,2019_Jul_30_1402,viewing,3.1.2,60.00002759044396,
north.png,stims/wedding-38.1a.mp4,stims/wedding-38.1b.mp4,stims/wedding-38.2b.mp4,stims/wedding-38.3b.mp4,stims/wedding-38.4b.mp4,stims/wedding-38.5.mp4,stimsday2details/newpainting18.png,stimsday2details/painting38.png,stimsday2details/couple38.png,stimsday2details/newperson35.png,stimsday2details/new35.png,stimsday2details/gift38.png,stimsday2details/cn38.png,stimsday2details/n38.png,stimsday2details/ct38.png,stimsday2details/t38.png,0,10,10,10,,,,,0,0,0,0,,,,,,,,,,,,,,,,,,,,,,,1492.5919537239242,None,,,,,,,,,,,,,,,,,,,,,,,,,,,,,,,,,,,,,,,,,,,,,,,,,,,,,,,,,,,,,,,,,,,,,,,,,,,,,,,,,,,,,,,,,,,001,8,2019_Jul_30_1402,viewing,3.1.2,60.00002759044396,
north.png,stims/wedding-38.1a.mp4,stims/wedding-38.1b.mp4,stims/wedding-38.2b.mp4,stims/wedding-38.3b.mp4,stims/wedding-38.4b.mp4,stims/wedding-38.5.mp4,stimsday2details/newpainting18.png,stimsday2details/painting38.png,stimsday2details/couple38.png,stimsday2details/newperson35.png,stimsday2details/new35.png,stimsday2details/gift38.png,stimsday2details/cn38.png,stimsday2details/n38.png,stimsday2details/ct38.png,stimsday2details/t38.png,0,10,10,10,,,,,,,,,0,0,0,0,,,,,,,,,,,,,,,,,,,,,3.146824877941981,None,1502.9925140759442,1527.8415183059406,1527.8581856339006,None,1536.8581918259151,None,1553.857871659915,1576.8409215440042,1576.8575933799148,None,1600.8573004339123,None,,,,,,,,,,,,,,,,,,,,,,,,,,,,,,,,,,,,,,,,,,,,,,,,,,,,,,,,,,,,,,,,,,,,,,,,,,,,,001,8,2019_Jul_30_1402,viewing,3.1.2,60.00002759044396,
north.png,stims/wedding-38.1a.mp4,stims/wedding-38.1b.mp4,stims/wedding-38.2b.mp4,stims/wedding-38.3b.mp4,stims/wedding-38.4b.mp4,stims/wedding-38.5.mp4,stimsday2details/newpainting18.png,stimsday2details/painting38.png,stimsday2details/couple38.png,stimsday2details/newperson35.png,stimsday2details/new35.png,stimsday2details/gift38.png,stimsday2details/cn38.png,stimsday2details/n38.png,stimsday2details/ct38.png,stimsday2details/t38.png,0,10,10,10,,,,,,,,,,,,,0,0,0,0,,,,,,,,,,,,,,,,,,,,,,,,,,,,,,,None,None,None,None,None,None,None,None,None,None,None,None,None,None,None,None,None,None,None,,None,None,None,,None,None,,,,,,,,,,,,,,,,,,,,,,,,,,,,,,,,,,,,,,,,,,,,,,,,,,,001,8,2019_Jul_30_1402,viewing,3.1.2,60.00002759044396,
north.png,stims/wedding-38.1a.mp4,stims/wedding-38.1b.mp4,stims/wedding-38.2b.mp4,stims/wedding-38.3b.mp4,stims/wedding-38.4b.mp4,stims/wedding-38.5.mp4,stimsday2details/newpainting18.png,stimsday2details/painting38.png,stimsday2details/couple38.png,stimsday2details/newperson35.png,stimsday2details/new35.png,stimsday2details/gift38.png,stimsday2details/cn38.png,stimsday2details/n38.png,stimsday2details/ct38.png,stimsday2details/t38.png,0,10,10,10,,,,,,,,,,,,,,,,,,,,,,,,,,,,,,,,,,,,,,,,,,,,,,,,,,,,,,,,,,,,,,,,,,,,,,,,,2.557900734245777e-05,None,2,1.118658461025916,1625.09033889696,None,1625.09033889696,None,1625.09033889696,None,1627.0735967059154,None,2,1.0837052359711379,1627.0735967059154,None,1627.0735967059154,None,1629.0735588259995,None,1629.0735588259995,None,1,0.6692334889667109,1629.0735588259995,None,None,,1631.0735349289607,None,1631.0735349289607,None,1631.0735349289607,None,1633.0735123449704,None,1633.0735123449704,None,2,0.6517976640025154,1633.0735123449704,None,1635.0735433729133,None,1635.0735433729133,None,1,1.1851227930746973,1635.0735433729133,None,001,8,2019_Jul_30_1402,viewing,3.1.2,60.00002759044396,
south.png,stims/wedding-29.1a.mp4,stims/wedding-29.1b.mp4,stims/wedding-29.2a.mp4,stims/wedding-29.3b.mp4,stims/wedding-29.4a.mp4,stims/wedding-29.5.mp4,stimsday2details/newegg18.png,stimsday2details/egg29.png,stimsday2details/couple29.png,stimsday2details/newperson36.png,stimsday2details/gift29.png,stimsday2details/new36.png,stimsday2details/cn29.png,stimsday2details/n29.png,stimsday2details/ct29.png,stimsday2details/t29.png,0,11,11,11,0,0,0,0,,,,,,,,,,,,,,,,,,,,,,,,,1637.073463851004,None,,,,,,,,,,,,,,,,,,,,,,,,,,,,,,,,,,,,,,,,,,,,,,,,,,,,,,,,,,,,,,,,,,,,,,,,,,,,,,,,,,,,,,,,,,,,,001,8,2019_Jul_30_1402,viewing,3.1.2,60.00002759044396,
south.png,stims/wedding-29.1a.mp4,stims/wedding-29.1b.mp4,stims/wedding-29.2a.mp4,stims/wedding-29.3b.mp4,stims/wedding-29.4a.mp4,stims/wedding-29.5.mp4,stimsday2details/newegg18.png,stimsday2details/egg29.png,stimsday2details/couple29.png,stimsday2details/newperson36.png,stimsday2details/gift29.png,stimsday2details/new36.png,stimsday2details/cn29.png,stimsday2details/n29.png,stimsday2details/ct29.png,stimsday2details/t29.png,0,11,11,11,,,,,0,0,0,0,,,,,,,,,,,,,,,,,,,,,,,None,None,,,,,,,,,,,,,,,,,,,,,,,,,,,,,,,,,,,,,,,,,,,,,,,,,,,,,,,,,,,,,,,,,,,,,,,,,,,,,,,,,,,,,,,,,,,001,8,2019_Jul_30_1402,viewing,3.1.2,60.00002759044396,
south.png,stims/wedding-29.1a.mp4,stims/wedding-29.1b.mp4,stims/wedding-29.2a.mp4,stims/wedding-29.3b.mp4,stims/wedding-29.4a.mp4,stims/wedding-29.5.mp4,stimsday2details/newegg18.png,stimsday2details/egg29.png,stimsday2details/couple29.png,stimsday2details/newperson36.png,stimsday2details/gift29.png,stimsday2details/new36.png,stimsday2details/cn29.png,stimsday2details/n29.png,stimsday2details/ct29.png,stimsday2details/t29.png,0,11,11,11,,,,,,,,,0,0,0,0,,,,,,,,,,,,,,,,,,,,,None,None,None,None,None,None,None,None,None,None,None,None,None,None,,,,,,,,,,,,,,,,,,,,,,,,,,,,,,,,,,,,,,,,,,,,,,,,,,,,,,,,,,,,,,,,,,,,,,,,,,,,,001,8,2019_Jul_30_1402,viewing,3.1.2,60.00002759044396,
south.png,stims/wedding-29.1a.mp4,stims/wedding-29.1b.mp4,stims/wedding-29.2a.mp4,stims/wedding-29.3b.mp4,stims/wedding-29.4a.mp4,stims/wedding-29.5.mp4,stimsday2details/newegg18.png,stimsday2details/egg29.png,stimsday2details/couple29.png,stimsday2details/newperson36.png,stimsday2details/gift29.png,stimsday2details/new36.png,stimsday2details/cn29.png,stimsday2details/n29.png,stimsday2details/ct29.png,stimsday2details/t29.png,0,11,11,11,,,,,,,,,,,,,0,0,0,0,,,,,,,,,,,,,,,,,,,,,,,,,,,,,,,2.9567580049624667,None,1650.8566267549759,1675.8897208529525,1675.9063085649395,None,1684.9062146369833,None,1701.906013328,1705.8893570749788,1705.9059664499946,1728.8890294089215,1728.9056769899325,1732.8889757199213,1732.9056632929714,None,1756.905376178911,None,['1'],[3.119017967954278],1700.9060077829054,1705.8893570749788,['2'],[2.2857353889849037],1727.905689185951,1732.8889757199213,,,,,,,,,,,,,,,,,,,,,,,,,,,,,,,,,,,,,,,,,,,,,,,,,,,001,8,2019_Jul_30_1402,viewing,3.1.2,60.00002759044396,
south.png,stims/wedding-29.1a.mp4,stims/wedding-29.1b.mp4,stims/wedding-29.2a.mp4,stims/wedding-29.3b.mp4,stims/wedding-29.4a.mp4,stims/wedding-29.5.mp4,stimsday2details/newegg18.png,stimsday2details/egg29.png,stimsday2details/couple29.png,stimsday2details/newperson36.png,stimsday2details/gift29.png,stimsday2details/new36.png,stimsday2details/cn29.png,stimsday2details/n29.png,stimsday2details/ct29.png,stimsday2details/t29.png,0,11,11,11,,,,,,,,,,,,,,,,,,,,,,,,,,,,,,,,,,,,,,,,,,,,,,,,,,,,,,,,,,,,,,,,,,,,,,,,,3.104691859334707e-05,None,1,1.618548054015264,1777.4886957838899,None,1777.4886957838899,None,1777.4886957838899,None,1779.4883939719293,None,2,0.752041058964096,1779.4883939719293,None,1779.4883939719293,None,1781.4883632229175,None,1781.4883632229175,None,1,0.7522247340530157,1781.4883632229175,None,2,1.7187156130094081,1783.4884087808896,None,1783.4884087808896,None,1783.4884087808896,None,1785.488321525976,None,1785.488321525976,None,1,0.9354005019413307,1785.488321525976,None,1787.4883605609648,None,1787.4883605609648,None,2,1.0355808889726177,1787.4883605609648,None,001,8,2019_Jul_30_1402,viewing,3.1.2,60.00002759044396,
