condsFile,northOrSouth,stimFile1a,stimFile1b,stimFile2,stimFile3,stimFile4,stimFile5,QeggPainting1,Qcharacter1,Qgift1,QeggPainting2,Qcharacter2,Qgift2,Qname1,Qtheme1,Qname2,Qtheme2,block.thisRepN,block.thisTrialN,block.thisN,block.thisIndex,trials.thisRepN,trials.thisTrialN,trials.thisN,trials.thisIndex,noQtrials.thisRepN,noQtrials.thisTrialN,noQtrials.thisN,noQtrials.thisIndex,Qtrials.thisRepN,Qtrials.thisTrialN,Qtrials.thisN,Qtrials.thisIndex,text.started,text.stopped,prep_trigger.keys,prep_trigger.rt,prep_trigger.started,prep_trigger.stopped,waiting.started,waiting.stopped,trigger.keys,trigger.rt,trigger.started,trigger.stopped,image_3.started,image_3.stopped,trialNoQs.started,trialNoQs.stopped,vid1a.started,vid1a.stopped,vid1b.started,vid1b.stopped,vid2.started,vid2.stopped,vid3.started,vid3.stopped,vid4.started,vid4.stopped,vid5.started,vid5.stopped,ISI2.started,ISI2.stopped,vid1a_q.started,vid1a_q.stopped,vid1b_q.started,vid1b_q.stopped,vid2_q.started,vid2_q.stopped,l2q.started,l2q.stopped,vid3_q.started,vid3_q.stopped,l3q.started,l3q.stopped,vid4_q.started,vid4_q.stopped,vid5_q.started,vid5_q.stopped,key_resp_2.keys,key_resp_2.rt,key_resp_2.started,key_resp_2.stopped,key_resp_3.keys,key_resp_3.rt,key_resp_3.started,key_resp_3.stopped,ISI7.started,ISI7.stopped,nameQresp.keys,nameQresp.rt,nameQresp.started,nameQresp.stopped,nameQ1.started,nameQ1.stopped,nameQ2.started,nameQ2.stopped,eggPainting1.started,eggPainting1.stopped,eggPaintingQresp.keys,eggPaintingQresp.rt,eggPaintingQresp.started,eggPaintingQresp.stopped,eggPainting2.started,eggPainting2.stopped,character1.started,character1.stopped,character2.started,character2.stopped,Qcharacter.keys,Qcharacter.rt,Qcharacter.started,Qcharacter.stopped,themeQresp.keys,themeQresp.rt,themeQresp.started,themeQresp.stopped,themeQ1.started,themeQ1.stopped,themeQ2.started,themeQ2.stopped,gift1.started,gift1.stopped,gift2.started,gift2.stopped,giftQresp.keys,giftQresp.rt,giftQresp.started,giftQresp.stopped,northorsouth1.started,northorsouth1.stopped,northOrSouthQ.keys,northOrSouthQ.rt,northOrSouthQ.started,northOrSouthQ.stopped,northorsouth2.started,northorsouth2.stopped,session,participant,date,expName,psychopyVersion,frameRate,
,,,,,,,,,,,,,,,,,,,,,,,,,,,,,,,,,,9.35605063289404,None,g,0.8663332760334015,9.35605063289404,None,,,,,,,,,,,,,,,,,,,,,,,,,,,,,,,,,,,,,,,,,,,,,,,,,,,,,,,,,,,,,,,,,,,,,,,,,,,,,,,,,,,,,,,,,,,,,,,,,,,001,32,2019_Dec_05_1603,Block2,3.1.2,59.98632876716063,
,,,,,,,,,,,,,,,,,,,,,,,,,,,,,,,,,,,,,,,,10.234806759748608,None,equal,20.135374827776104,10.234806759748608,None,,,,,,,,,,,,,,,,,,,,,,,,,,,,,,,,,,,,,,,,,,,,,,,,,,,,,,,,,,,,,,,,,,,,,,,,,,,,,,,,,,,,,,,,,,,,,001,32,2019_Dec_05_1603,Block2,3.1.2,59.98632876716063,
videoBlock_schemaN_pathA_4.csv,north.png,stims/wedding-13.1a.mp4,stims/wedding-13.1b.mp4,stims/wedding-13.2a.mp4,stims/wedding-13.3a.mp4,stims/wedding-13.4a.mp4,stims/wedding-13.5.mp4,stimsday1details/egg13.png,stimsday1details/couple13.png,stimsday1details/new4.png,stimsday1details/newegg4.png,stimsday1details/newperson4.png,stimsday1details/gift13.png,stimsday1details/n13.png,stimsday1details/ct13.png,stimsday1details/cn13.png,stimsday1details/t13.png,0,0,0,0,0,0,0,0,0,0,0,0,,,,,,,,,,,,,,,,,30.401962782721967,None,None,None,None,None,None,None,None,None,None,None,None,None,None,None,,,,,,,,,,,,,,,,,,,,,,,,,,,,,,,,,,,,,,,,,,,,,,,,,,,,,,,,,,,,,,,,,,,,,,,,,,,,,001,32,2019_Dec_05_1603,Block2,3.1.2,59.98632876716063,
videoBlock_schemaN_pathA_4.csv,north.png,stims/wedding-13.1a.mp4,stims/wedding-13.1b.mp4,stims/wedding-13.2a.mp4,stims/wedding-13.3a.mp4,stims/wedding-13.4a.mp4,stims/wedding-13.5.mp4,stimsday1details/egg13.png,stimsday1details/couple13.png,stimsday1details/new4.png,stimsday1details/newegg4.png,stimsday1details/newperson4.png,stimsday1details/gift13.png,stimsday1details/n13.png,stimsday1details/ct13.png,stimsday1details/cn13.png,stimsday1details/t13.png,0,0,0,0,0,0,0,0,,,,,0,0,0,0,,,,,,,,,,,,,,,,,,,,,,,,,,,,,2.5044365762732923,None,42.601338400971144,None,59.100856128614396,None,68.10067994100973,None,85.10052759386599,89.10048209968954,89.10048209968954,112.10018633957952,112.10018633957952,116.10014250176027,116.10014250176027,140.09983965102583,140.09983965102583,None,['1'],[2.33548128278926],84.1005592327565,89.10048209968954,['1'],[1.8520978330634534],111.10022185603157,116.10014250176027,,,,,,,,,,,,,,,,,,,,,,,,,,,,,,,,,,,,,,,,,,,,,,,,,,,001,32,2019_Dec_05_1603,Block2,3.1.2,59.98632876716063,
videoBlock_schemaN_pathA_4.csv,north.png,stims/wedding-13.1a.mp4,stims/wedding-13.1b.mp4,stims/wedding-13.2a.mp4,stims/wedding-13.3a.mp4,stims/wedding-13.4a.mp4,stims/wedding-13.5.mp4,stimsday1details/egg13.png,stimsday1details/couple13.png,stimsday1details/new4.png,stimsday1details/newegg4.png,stimsday1details/newperson4.png,stimsday1details/gift13.png,stimsday1details/n13.png,stimsday1details/ct13.png,stimsday1details/cn13.png,stimsday1details/t13.png,0,0,0,0,0,0,0,0,,,,,,,,,,,,,,,,,,,,,,,,,,,,,,,,,,,,,,,,,,,,,,,,,,,,,,,,,,,,,,,2.7043744921684265e-05,None,1,0.41890608286485076,154.28299749363214,None,154.28299749363214,None,154.28299749363214,None,156.26629805983976,None,1,0.9351327368058264,156.26629805983976,None,156.26629805983976,None,158.26628418499604,None,158.26628418499604,None,1,1.18522745417431,158.26628418499604,None,2,0.9020535689778626,160.26624949881807,None,160.26624949881807,None,160.26624949881807,None,162.26622135285288,None,162.26622135285288,None,2,0.8354659168981016,162.26622135285288,None,164.26620055083185,None,1,0.8190737077966332,164.26620055083185,None,164.26620055083185,None,001,32,2019_Dec_05_1603,Block2,3.1.2,59.98632876716063,
videoBlock_schemaN_pathB_6.csv,north.png,stims/wedding-16.1a.mp4,stims/wedding-16.1b.mp4,stims/wedding-16.2b.mp4,stims/wedding-16.3b.mp4,stims/wedding-16.4b.mp4,stims/wedding-16.5.mp4,stimsday1details/painting16.png,stimsday1details/newperson18.png,stimsday1details/gift16.png,stimsday1details/newpainting6.png,stimsday1details/couple16.png,stimsday1details/new18.png,stimsday1details/n16.png,stimsday1details/ct16.png,stimsday1details/cn16.png,stimsday1details/t16.png,0,1,1,5,0,0,0,0,0,0,0,0,,,,,,,,,,,,,,,,,166.4495121706277,None,2.830875269137323,None,176.28271634690464,None,192.465823456645,200.44907073769718,200.4656796217896,217.44883941393346,217.46552673866972,240.44856692897156,240.46522361272946,264.448262729682,264.46493310295045,None,,,,,,,,,,,,,,,,,,,,,,,,,,,,,,,,,,,,,,,,,,,,,,,,,,,,,,,,,,,,,,,,,,,,,,,,,,,,,001,32,2019_Dec_05_1603,Block2,3.1.2,59.98632876716063,
videoBlock_schemaN_pathB_6.csv,north.png,stims/wedding-16.1a.mp4,stims/wedding-16.1b.mp4,stims/wedding-16.2b.mp4,stims/wedding-16.3b.mp4,stims/wedding-16.4b.mp4,stims/wedding-16.5.mp4,stimsday1details/painting16.png,stimsday1details/newperson18.png,stimsday1details/gift16.png,stimsday1details/newpainting6.png,stimsday1details/couple16.png,stimsday1details/new18.png,stimsday1details/n16.png,stimsday1details/ct16.png,stimsday1details/cn16.png,stimsday1details/t16.png,0,1,1,5,0,0,0,0,,,,,0,0,0,0,,,,,,,,,,,,,,,,,,,,,,,,,,,,,None,None,None,None,None,None,None,None,None,None,None,None,None,None,None,None,None,None,None,,None,None,None,,None,None,,,,,,,,,,,,,,,,,,,,,,,,,,,,,,,,,,,,,,,,,,,,,,,,,,,001,32,2019_Dec_05_1603,Block2,3.1.2,59.98632876716063,
videoBlock_schemaN_pathB_6.csv,north.png,stims/wedding-16.1a.mp4,stims/wedding-16.1b.mp4,stims/wedding-16.2b.mp4,stims/wedding-16.3b.mp4,stims/wedding-16.4b.mp4,stims/wedding-16.5.mp4,stimsday1details/painting16.png,stimsday1details/newperson18.png,stimsday1details/gift16.png,stimsday1details/newpainting6.png,stimsday1details/couple16.png,stimsday1details/new18.png,stimsday1details/n16.png,stimsday1details/ct16.png,stimsday1details/cn16.png,stimsday1details/t16.png,0,1,1,5,0,0,0,0,,,,,,,,,,,,,,,,,,,,,,,,,,,,,,,,,,,,,,,,,,,,,,,,,,,,,,,,,,,,,,,2.681417390704155e-05,None,1,0.9305342598818243,281.9695558976382,None,281.9695558976382,None,281.9695558976382,None,283.94801912782714,None,1,0.7850698018446565,283.94801912782714,None,283.94801912782714,None,285.9479911229573,None,285.9479911229573,None,2,0.9687223490327597,285.9479911229573,None,2,0.8687230651266873,287.94797696266323,None,287.94797696266323,None,287.94797696266323,None,289.9479456166737,None,289.9479456166737,None,1,0.635450622998178,289.9479456166737,None,291.9478530297056,None,1,0.635431932285428,291.9478530297056,None,291.9478530297056,None,001,32,2019_Dec_05_1603,Block2,3.1.2,59.98632876716063,
videoBlock_schemaN_pathA_6.csv,north.png,stims/wedding-40.1a.mp4,stims/wedding-40.1b.mp4,stims/wedding-40.2a.mp4,stims/wedding-40.3a.mp4,stims/wedding-40.4a.mp4,stims/wedding-40.5.mp4,stimsday1details/newegg6.png,stimsday1details/newperson6.png,stimsday1details/new6.png,stimsday1details/egg40.png,stimsday1details/couple40.png,stimsday1details/gift40.png,stimsday1details/n40.png,stimsday1details/t40.png,stimsday1details/cn40.png,stimsday1details/ct40.png,0,2,2,2,0,0,0,0,0,0,0,0,,,,,,,,,,,,,,,,,294.16457235394046,None,2.7798709399066865,None,303.94772255187854,320.16424275096506,320.1809013769962,None,328.18079371983185,None,345.18057963391766,368.16355967801064,368.1802916196175,None,392.1799243609421,None,,,,,,,,,,,,,,,,,,,,,,,,,,,,,,,,,,,,,,,,,,,,,,,,,,,,,,,,,,,,,,,,,,,,,,,,,,,,,001,32,2019_Dec_05_1603,Block2,3.1.2,59.98632876716063,
videoBlock_schemaN_pathA_6.csv,north.png,stims/wedding-40.1a.mp4,stims/wedding-40.1b.mp4,stims/wedding-40.2a.mp4,stims/wedding-40.3a.mp4,stims/wedding-40.4a.mp4,stims/wedding-40.5.mp4,stimsday1details/newegg6.png,stimsday1details/newperson6.png,stimsday1details/new6.png,stimsday1details/egg40.png,stimsday1details/couple40.png,stimsday1details/gift40.png,stimsday1details/n40.png,stimsday1details/t40.png,stimsday1details/cn40.png,stimsday1details/ct40.png,0,2,2,2,0,0,0,0,,,,,0,0,0,0,,,,,,,,,,,,,,,,,,,,,,,,,,,,,None,None,None,None,None,None,None,None,None,None,None,None,None,None,None,None,None,None,None,,None,None,None,,None,None,,,,,,,,,,,,,,,,,,,,,,,,,,,,,,,,,,,,,,,,,,,,,,,,,,,001,32,2019_Dec_05_1603,Block2,3.1.2,59.98632876716063,
videoBlock_schemaN_pathA_6.csv,north.png,stims/wedding-40.1a.mp4,stims/wedding-40.1b.mp4,stims/wedding-40.2a.mp4,stims/wedding-40.3a.mp4,stims/wedding-40.4a.mp4,stims/wedding-40.5.mp4,stimsday1details/newegg6.png,stimsday1details/newperson6.png,stimsday1details/new6.png,stimsday1details/egg40.png,stimsday1details/couple40.png,stimsday1details/gift40.png,stimsday1details/n40.png,stimsday1details/t40.png,stimsday1details/cn40.png,stimsday1details/ct40.png,0,2,2,2,0,0,0,0,,,,,,,,,,,,,,,,,,,,,,,,,,,,,,,,,,,,,,,,,,,,,,,,,,,,,,,,,,,,,,,3.124028444290161e-05,None,1,1.6025239708833396,410.09643454197794,None,410.09643454197794,None,410.09643454197794,None,412.0797429056838,None,2,0.9686940032988787,412.0797429056838,None,412.0797429056838,None,414.07971277460456,None,414.07971277460456,None,2,0.9022919647395611,414.07971277460456,None,1,0.6688006082549691,416.07969279494137,None,416.07969279494137,None,416.07969279494137,None,418.0796681959182,None,418.0796681959182,None,2,0.7702740458771586,418.0796681959182,None,420.0796346720308,None,1,0.5352574572898448,420.0796346720308,None,420.0796346720308,None,001,32,2019_Dec_05_1603,Block2,3.1.2,59.98632876716063,
videoBlock_schemaN_pathB_4.csv,north.png,stims/wedding-12.1a.mp4,stims/wedding-12.1b.mp4,stims/wedding-12.2b.mp4,stims/wedding-12.3b.mp4,stims/wedding-12.4b.mp4,stims/wedding-12.5.mp4,stimsday1details/painting12.png,stimsday1details/couple12.png,stimsday1details/gift12.png,stimsday1details/newpainting4.png,stimsday1details/newperson16.png,stimsday1details/new16.png,stimsday1details/n12.png,stimsday1details/t12.png,stimsday1details/cn12.png,stimsday1details/ct12.png,0,3,3,3,0,0,0,0,0,0,0,0,,,,,,,,,,,,,,,,,422.3295823908411,None,2.765511241275817,None,432.0964382379316,448.3292757049203,448.3459445568733,456.32917402498424,456.3458451027982,None,473.3456339337863,496.32867723563686,496.3453419976868,None,520.3450399036519,None,,,,,,,,,,,,,,,,,,,,,,,,,,,,,,,,,,,,,,,,,,,,,,,,,,,,,,,,,,,,,,,,,,,,,,,,,,,,,001,32,2019_Dec_05_1603,Block2,3.1.2,59.98632876716063,
videoBlock_schemaN_pathB_4.csv,north.png,stims/wedding-12.1a.mp4,stims/wedding-12.1b.mp4,stims/wedding-12.2b.mp4,stims/wedding-12.3b.mp4,stims/wedding-12.4b.mp4,stims/wedding-12.5.mp4,stimsday1details/painting12.png,stimsday1details/couple12.png,stimsday1details/gift12.png,stimsday1details/newpainting4.png,stimsday1details/newperson16.png,stimsday1details/new16.png,stimsday1details/n12.png,stimsday1details/t12.png,stimsday1details/cn12.png,stimsday1details/ct12.png,0,3,3,3,0,0,0,0,,,,,0,0,0,0,,,,,,,,,,,,,,,,,,,,,,,,,,,,,None,None,None,None,None,None,None,None,None,None,None,None,None,None,None,None,None,None,None,,None,None,None,,None,None,,,,,,,,,,,,,,,,,,,,,,,,,,,,,,,,,,,,,,,,,,,,,,,,,,,001,32,2019_Dec_05_1603,Block2,3.1.2,59.98632876716063,
videoBlock_schemaN_pathB_4.csv,north.png,stims/wedding-12.1a.mp4,stims/wedding-12.1b.mp4,stims/wedding-12.2b.mp4,stims/wedding-12.3b.mp4,stims/wedding-12.4b.mp4,stims/wedding-12.5.mp4,stimsday1details/painting12.png,stimsday1details/couple12.png,stimsday1details/gift12.png,stimsday1details/newpainting4.png,stimsday1details/newperson16.png,stimsday1details/new16.png,stimsday1details/n12.png,stimsday1details/t12.png,stimsday1details/cn12.png,stimsday1details/ct12.png,0,3,3,3,0,0,0,0,,,,,,,,,,,,,,,,,,,,,,,,,,,,,,,,,,,,,,,,,,,,,,,,,,,,,,,,,,,,,,,2.6306137442588806e-05,None,1,0.7687991508282721,537.4115539337508,None,537.4115539337508,None,537.4115539337508,None,539.4114641668275,None,1,0.7854506378062069,539.4114641668275,None,539.4114641668275,None,541.4114399007522,None,541.4114399007522,None,1,0.7522056582383811,541.4114399007522,None,1,0.9684560159221292,543.4114125077613,None,543.4114125077613,None,543.4114125077613,None,545.4113931916654,None,545.4113931916654,None,1,0.6851542531512678,545.4113931916654,None,547.4113607807085,None,1,0.6017664070241153,547.4113607807085,None,547.4113607807085,None,001,32,2019_Dec_05_1603,Block2,3.1.2,59.98632876716063,
videoBlock_schemaN_pathB_5.csv,north.png,stims/wedding-18.1a.mp4,stims/wedding-18.1b.mp4,stims/wedding-18.2b.mp4,stims/wedding-18.3b.mp4,stims/wedding-18.4b.mp4,stims/wedding-18.5.mp4,stimsday1details/newpainting5.png,stimsday1details/couple18.png,stimsday1details/new17.png,stimsday1details/painting18.png,stimsday1details/newperson17.png,stimsday1details/gift18.png,stimsday1details/cn18.png,stimsday1details/t18.png,stimsday1details/n18.png,stimsday1details/ct18.png,0,4,4,4,0,0,0,0,0,0,0,0,,,,,,,,,,,,,,,,,549.6780035188422,None,3.0145620610564947,None,559.6945451316424,575.6776723396033,575.6943416418508,583.6775718550198,583.6943504796363,None,600.6940572299063,623.6770653948188,623.6937401108444,647.6767635010183,647.693440197967,None,,,,,,,,,,,,,,,,,,,,,,,,,,,,,,,,,,,,,,,,,,,,,,,,,,,,,,,,,,,,,,,,,,,,,,,,,,,,,001,32,2019_Dec_05_1603,Block2,3.1.2,59.98632876716063,
videoBlock_schemaN_pathB_5.csv,north.png,stims/wedding-18.1a.mp4,stims/wedding-18.1b.mp4,stims/wedding-18.2b.mp4,stims/wedding-18.3b.mp4,stims/wedding-18.4b.mp4,stims/wedding-18.5.mp4,stimsday1details/newpainting5.png,stimsday1details/couple18.png,stimsday1details/new17.png,stimsday1details/painting18.png,stimsday1details/newperson17.png,stimsday1details/gift18.png,stimsday1details/cn18.png,stimsday1details/t18.png,stimsday1details/n18.png,stimsday1details/ct18.png,0,4,4,4,0,0,0,0,,,,,0,0,0,0,,,,,,,,,,,,,,,,,,,,,,,,,,,,,None,None,None,None,None,None,None,None,None,None,None,None,None,None,None,None,None,None,None,,None,None,None,,None,None,,,,,,,,,,,,,,,,,,,,,,,,,,,,,,,,,,,,,,,,,,,,,,,,,,,001,32,2019_Dec_05_1603,Block2,3.1.2,59.98632876716063,
videoBlock_schemaN_pathB_5.csv,north.png,stims/wedding-18.1a.mp4,stims/wedding-18.1b.mp4,stims/wedding-18.2b.mp4,stims/wedding-18.3b.mp4,stims/wedding-18.4b.mp4,stims/wedding-18.5.mp4,stimsday1details/newpainting5.png,stimsday1details/couple18.png,stimsday1details/new17.png,stimsday1details/painting18.png,stimsday1details/newperson17.png,stimsday1details/gift18.png,stimsday1details/cn18.png,stimsday1details/t18.png,stimsday1details/n18.png,stimsday1details/ct18.png,0,4,4,4,0,0,0,0,,,,,,,,,,,,,,,,,,,,,,,,,,,,,,,,,,,,,,,,,,,,,,,,,,,,,,,,,,,,,,,3.812694922089577e-05,None,2,1.00194023642689,665.8432345287874,None,665.8432345287874,None,665.8432345287874,None,667.8432132960297,None,2,1.1016919487155974,667.8432132960297,None,667.8432132960297,None,669.8431514305994,None,669.8431514305994,None,1,0.9520902060903609,669.8431514305994,None,1,0.8183535770513117,671.8432195209898,None,671.8432195209898,None,671.8432195209898,None,673.8431084528565,None,673.8431084528565,None,2,0.7518062964081764,673.8431084528565,None,675.8430986460298,None,1,0.6020537223666906,675.8430986460298,None,675.8430986460298,None,001,32,2019_Dec_05_1603,Block2,3.1.2,59.98632876716063,
videoBlock_schemaN_pathA_5.csv,north.png,stims/wedding-15.1a.mp4,stims/wedding-15.1b.mp4,stims/wedding-15.2a.mp4,stims/wedding-15.3a.mp4,stims/wedding-15.4a.mp4,stims/wedding-15.5.mp4,stimsday1details/egg15.png,stimsday1details/couple15.png,stimsday1details/gift15.png,stimsday1details/newegg5.png,stimsday1details/newperson5.png,stimsday1details/new5.png,stimsday1details/n15.png,stimsday1details/t15.png,stimsday1details/cn15.png,stimsday1details/ct15.png,0,5,5,1,0,0,0,0,0,0,0,0,,,,,,,,,,,,,,,,,678.1597273079678,None,None,None,None,None,None,None,None,None,None,None,None,None,None,None,,,,,,,,,,,,,,,,,,,,,,,,,,,,,,,,,,,,,,,,,,,,,,,,,,,,,,,,,,,,,,,,,,,,,,,,,,,,,001,32,2019_Dec_05_1603,Block2,3.1.2,59.98632876716063,
videoBlock_schemaN_pathA_5.csv,north.png,stims/wedding-15.1a.mp4,stims/wedding-15.1b.mp4,stims/wedding-15.2a.mp4,stims/wedding-15.3a.mp4,stims/wedding-15.4a.mp4,stims/wedding-15.5.mp4,stimsday1details/egg15.png,stimsday1details/couple15.png,stimsday1details/gift15.png,stimsday1details/newegg5.png,stimsday1details/newperson5.png,stimsday1details/new5.png,stimsday1details/n15.png,stimsday1details/t15.png,stimsday1details/cn15.png,stimsday1details/ct15.png,0,5,5,1,0,0,0,0,,,,,0,0,0,0,,,,,,,,,,,,,,,,,,,,,,,,,,,,,2.7843372677452862,None,691.3095533638261,707.5260158218443,707.5260158218443,None,716.5258315787651,None,733.5257251188159,737.5256372615695,737.5256372615695,760.525305615738,760.525305615738,764.5253263777122,764.5253263777122,788.524995025713,788.524995025713,None,['1'],[3.718504668213427],732.5257018855773,737.5256372615695,['1'],[2.7188539281487465],759.5252959858626,764.5253263777122,,,,,,,,,,,,,,,,,,,,,,,,,,,,,,,,,,,,,,,,,,,,,,,,,,,001,32,2019_Dec_05_1603,Block2,3.1.2,59.98632876716063,
videoBlock_schemaN_pathA_5.csv,north.png,stims/wedding-15.1a.mp4,stims/wedding-15.1b.mp4,stims/wedding-15.2a.mp4,stims/wedding-15.3a.mp4,stims/wedding-15.4a.mp4,stims/wedding-15.5.mp4,stimsday1details/egg15.png,stimsday1details/couple15.png,stimsday1details/gift15.png,stimsday1details/newegg5.png,stimsday1details/newperson5.png,stimsday1details/new5.png,stimsday1details/n15.png,stimsday1details/t15.png,stimsday1details/cn15.png,stimsday1details/ct15.png,0,5,5,1,0,0,0,0,,,,,,,,,,,,,,,,,,,,,,,,,,,,,,,,,,,,,,,,,,,,,,,,,,,,,,,,,,,,,,,3.1122006475925446e-05,None,1,0.868909303098917,803.8081569937058,None,803.8081569937058,None,803.8081569937058,None,805.8080303496681,None,1,0.7689356962218881,805.8080303496681,None,805.8080303496681,None,807.8080870457925,None,807.8080870457925,None,1,1.0685552647337317,807.8080870457925,None,1,0.7852559457533062,809.8079938576557,None,809.8079938576557,None,809.8079938576557,None,811.808035697788,None,811.808035697788,None,1,0.5687506478279829,811.808035697788,None,813.8080073366873,None,1,0.6169854830950499,813.8080073366873,None,813.8080073366873,None,001,32,2019_Dec_05_1603,Block2,3.1.2,59.98632876716063,
