condsFile,northOrSouth,stimFile1a,stimFile1b,stimFile2,stimFile3,stimFile4,stimFile5,QeggPainting1,Qcharacter1,Qgift1,QeggPainting2,Qcharacter2,Qgift2,Qname1,Qtheme1,Qname2,Qtheme2,block.thisRepN,block.thisTrialN,block.thisN,block.thisIndex,trials.thisRepN,trials.thisTrialN,trials.thisN,trials.thisIndex,noQtrials.thisRepN,noQtrials.thisTrialN,noQtrials.thisN,noQtrials.thisIndex,Qtrials.thisRepN,Qtrials.thisTrialN,Qtrials.thisN,Qtrials.thisIndex,text.started,text.stopped,prep_trigger.keys,prep_trigger.rt,prep_trigger.started,prep_trigger.stopped,waiting.started,waiting.stopped,trigger.keys,trigger.rt,trigger.started,trigger.stopped,image_3.started,image_3.stopped,trialNoQs.started,trialNoQs.stopped,vid1a.started,vid1a.stopped,vid1b.started,vid1b.stopped,vid2.started,vid2.stopped,vid3.started,vid3.stopped,vid4.started,vid4.stopped,vid5.started,vid5.stopped,ISI2.started,ISI2.stopped,vid1a_q.started,vid1a_q.stopped,vid1b_q.started,vid1b_q.stopped,vid2_q.started,vid2_q.stopped,l2q.started,l2q.stopped,vid3_q.started,vid3_q.stopped,l3q.started,l3q.stopped,vid4_q.started,vid4_q.stopped,vid5_q.started,vid5_q.stopped,key_resp_2.keys,key_resp_2.rt,key_resp_2.started,key_resp_2.stopped,key_resp_3.keys,key_resp_3.rt,key_resp_3.started,key_resp_3.stopped,ISI7.started,ISI7.stopped,nameQresp.keys,nameQresp.rt,nameQresp.started,nameQresp.stopped,nameQ1.started,nameQ1.stopped,nameQ2.started,nameQ2.stopped,eggPainting1.started,eggPainting1.stopped,eggPaintingQresp.keys,eggPaintingQresp.rt,eggPaintingQresp.started,eggPaintingQresp.stopped,eggPainting2.started,eggPainting2.stopped,character1.started,character1.stopped,character2.started,character2.stopped,Qcharacter.keys,Qcharacter.rt,Qcharacter.started,Qcharacter.stopped,themeQresp.keys,themeQresp.rt,themeQresp.started,themeQresp.stopped,themeQ1.started,themeQ1.stopped,themeQ2.started,themeQ2.stopped,gift1.started,gift1.stopped,gift2.started,gift2.stopped,giftQresp.keys,giftQresp.rt,giftQresp.started,giftQresp.stopped,northorsouth1.started,northorsouth1.stopped,northOrSouthQ.keys,northOrSouthQ.rt,northOrSouthQ.started,northOrSouthQ.stopped,northorsouth2.started,northorsouth2.stopped,session,participant,date,expName,psychopyVersion,frameRate,
,,,,,,,,,,,,,,,,,,,,,,,,,,,,,,,,,,5.6011346859741025,None,g,1.1208835929865018,5.6011346859741025,None,,,,,,,,,,,,,,,,,,,,,,,,,,,,,,,,,,,,,,,,,,,,,,,,,,,,,,,,,,,,,,,,,,,,,,,,,,,,,,,,,,,,,,,,,,,,,,,,,,,001,8,2019_Jul_29_1434,Block3,3.1.2,60.0008008735982,
,,,,,,,,,,,,,,,,,,,,,,,,,,,,,,,,,,,,,,,,6.734519677993376,None,equal,17.12177025002893,6.734519677993376,None,,,,,,,,,,,,,,,,,,,,,,,,,,,,,,,,,,,,,,,,,,,,,,,,,,,,,,,,,,,,,,,,,,,,,,,,,,,,,,,,,,,,,,,,,,,,,001,8,2019_Jul_29_1434,Block3,3.1.2,60.0008008735982,
videoBlock_schemaN_pathA_1.csv,north.png,stims/wedding-3.1a.mp4,stims/wedding-3.1b.mp4,stims/wedding-3.2a.mp4,stims/wedding-3.3a.mp4,stims/wedding-3.4a.mp4,stims/wedding-3.5.mp4,stimsday1details/egg3.png,stimsday1details/couple3.png,stimsday1details/new1.png,stimsday1details/newegg1.png,stimsday1details/newperson1.png,stimsday1details/gift3.png,stimsday1details/cn3.png,stimsday1details/t3.png,stimsday1details/n3.png,stimsday1details/ct3.png,0,0,0,0,0,0,0,0,0,0,0,0,,,,,,,,,,,,,,,,,23.900975100987125,None,None,None,None,None,None,None,None,None,None,None,None,None,None,None,,,,,,,,,,,,,,,,,,,,,,,,,,,,,,,,,,,,,,,,,,,,,,,,,,,,,,,,,,,,,,,,,,,,,,,,,,,,,001,8,2019_Jul_29_1434,Block3,3.1.2,60.0008008735982,
videoBlock_schemaN_pathA_1.csv,north.png,stims/wedding-3.1a.mp4,stims/wedding-3.1b.mp4,stims/wedding-3.2a.mp4,stims/wedding-3.3a.mp4,stims/wedding-3.4a.mp4,stims/wedding-3.5.mp4,stimsday1details/egg3.png,stimsday1details/couple3.png,stimsday1details/new1.png,stimsday1details/newegg1.png,stimsday1details/newperson1.png,stimsday1details/gift3.png,stimsday1details/cn3.png,stimsday1details/t3.png,stimsday1details/n3.png,stimsday1details/ct3.png,0,0,0,0,0,0,0,0,,,,,0,0,0,0,,,,,,,,,,,,,,,,,,,,,,,,,,,,,2.5154601049725898,None,36.11750697798561,50.600642234960105,50.617306692991406,None,59.617202436958905,76.60035375197185,76.61699350900017,80.60026937595103,80.61699603497982,103.5999861289747,103.6166515169898,107.5999118849868,107.61660406796727,None,131.6163121300051,None,['2'],[2.435264626983553],75.6170018389821,80.60026937595103,['1'],[3.1169423739775084],102.61667217098875,107.5999118849868,,,,,,,,,,,,,,,,,,,,,,,,,,,,,,,,,,,,,,,,,,,,,,,,,,,001,8,2019_Jul_29_1434,Block3,3.1.2,60.0008008735982,
videoBlock_schemaN_pathA_1.csv,north.png,stims/wedding-3.1a.mp4,stims/wedding-3.1b.mp4,stims/wedding-3.2a.mp4,stims/wedding-3.3a.mp4,stims/wedding-3.4a.mp4,stims/wedding-3.5.mp4,stimsday1details/egg3.png,stimsday1details/couple3.png,stimsday1details/new1.png,stimsday1details/newegg1.png,stimsday1details/newperson1.png,stimsday1details/gift3.png,stimsday1details/cn3.png,stimsday1details/t3.png,stimsday1details/n3.png,stimsday1details/ct3.png,0,0,0,0,0,0,0,0,,,,,,,,,,,,,,,,,,,,,,,,,,,,,,,,,,,,,,,,,,,,,,,,,,,,,,,,,,,,,,,2.3984001018106937e-05,None,2,1.1017769029713236,146.06613541697152,None,146.06613541697152,None,146.06613541697152,None,148.04943701595766,None,1,0.6518260190496221,148.04943701595766,None,148.04943701595766,None,150.04941032000352,None,150.04941032000352,None,1,0.7851950150215998,150.04941032000352,None,1,0.9017258710227907,152.04938726400724,None,152.04938726400724,None,152.04938726400724,None,154.0493663039524,None,154.0493663039524,None,2,1.1191343240207061,154.0493663039524,None,156.049337704957,None,1,0.7189359939657152,156.049337704957,None,156.049337704957,None,001,8,2019_Jul_29_1434,Block3,3.1.2,60.0008008735982,
videoBlock_schemaN_pathB_1.csv,north.png,stims/wedding-4.1a.mp4,stims/wedding-4.1b.mp4,stims/wedding-4.2b.mp4,stims/wedding-4.3b.mp4,stims/wedding-4.4b.mp4,stims/wedding-4.5.mp4,stimsday1details/newpainting1.png,stimsday1details/newperson13.png,stimsday1details/gift4.png,stimsday1details/painting4.png,stimsday1details/couple4.png,stimsday1details/new13.png,stimsday1details/n4.png,stimsday1details/ct4.png,stimsday1details/cn4.png,stimsday1details/t4.png,0,1,1,3,0,0,0,0,0,0,0,0,,,,,,,,,,,,,,,,,158.23264256096445,None,2.738631163025275,None,167.96592470398173,182.2322871729848,182.2489452189766,None,191.2488468119991,None,208.24866926897084,231.23167746700346,231.24834565696074,None,255.24810682598036,None,,,,,,,,,,,,,,,,,,,,,,,,,,,,,,,,,,,,,,,,,,,,,,,,,,,,,,,,,,,,,,,,,,,,,,,,,,,,,001,8,2019_Jul_29_1434,Block3,3.1.2,60.0008008735982,
videoBlock_schemaN_pathB_1.csv,north.png,stims/wedding-4.1a.mp4,stims/wedding-4.1b.mp4,stims/wedding-4.2b.mp4,stims/wedding-4.3b.mp4,stims/wedding-4.4b.mp4,stims/wedding-4.5.mp4,stimsday1details/newpainting1.png,stimsday1details/newperson13.png,stimsday1details/gift4.png,stimsday1details/painting4.png,stimsday1details/couple4.png,stimsday1details/new13.png,stimsday1details/n4.png,stimsday1details/ct4.png,stimsday1details/cn4.png,stimsday1details/t4.png,0,1,1,3,0,0,0,0,,,,,0,0,0,0,,,,,,,,,,,,,,,,,,,,,,,,,,,,,None,None,None,None,None,None,None,None,None,None,None,None,None,None,None,None,None,None,None,,None,None,None,,None,None,,,,,,,,,,,,,,,,,,,,,,,,,,,,,,,,,,,,,,,,,,,,,,,,,,,001,8,2019_Jul_29_1434,Block3,3.1.2,60.0008008735982,
videoBlock_schemaN_pathB_1.csv,north.png,stims/wedding-4.1a.mp4,stims/wedding-4.1b.mp4,stims/wedding-4.2b.mp4,stims/wedding-4.3b.mp4,stims/wedding-4.4b.mp4,stims/wedding-4.5.mp4,stimsday1details/newpainting1.png,stimsday1details/newperson13.png,stimsday1details/gift4.png,stimsday1details/painting4.png,stimsday1details/couple4.png,stimsday1details/new13.png,stimsday1details/n4.png,stimsday1details/ct4.png,stimsday1details/cn4.png,stimsday1details/t4.png,0,1,1,3,0,0,0,0,,,,,,,,,,,,,,,,,,,,,,,,,,,,,,,,,,,,,,,,,,,,,,,,,,,,,,,,,,,,,,,2.5908986572176218e-05,None,1,0.6518781530321576,272.6645630109706,None,272.6645630109706,None,272.6645630109706,None,274.6478690689546,None,2,0.85221778601408,274.6478690689546,None,274.6478690689546,None,276.64784066798165,None,276.64784066798165,None,2,0.8353767450316809,276.64784066798165,None,2,1.2524017209652811,278.64782419399126,None,278.64782419399126,None,278.64782419399126,None,280.64779042697046,None,280.64779042697046,None,1,1.052095493010711,280.64779042697046,None,282.64777404099004,None,1,0.818662122997921,282.64777404099004,None,282.64777404099004,None,001,8,2019_Jul_29_1434,Block3,3.1.2,60.0008008735982,
videoBlock_schemaN_pathB_2.csv,north.png,stims/wedding-8.1a.mp4,stims/wedding-8.1b.mp4,stims/wedding-8.2b.mp4,stims/wedding-8.3b.mp4,stims/wedding-8.4b.mp4,stims/wedding-8.5.mp4,stimsday1details/newpainting2.png,stimsday1details/newperson14.png,stimsday1details/new14.png,stimsday1details/painting8.png,stimsday1details/couple8.png,stimsday1details/gift8.png,stimsday1details/n8.png,stimsday1details/t8.png,stimsday1details/cn8.png,stimsday1details/ct8.png,0,2,2,4,0,0,0,0,0,0,0,0,,,,,,,,,,,,,,,,,284.8644571589539,None,2.7336163829895668,None,294.59942374000093,308.86410732998047,308.88079231698066,317.86399197095307,317.8806692369981,None,334.8804945569718,None,357.8801698439638,None,381.87986818596255,None,,,,,,,,,,,,,,,,,,,,,,,,,,,,,,,,,,,,,,,,,,,,,,,,,,,,,,,,,,,,,,,,,,,,,,,,,,,,,001,8,2019_Jul_29_1434,Block3,3.1.2,60.0008008735982,
videoBlock_schemaN_pathB_2.csv,north.png,stims/wedding-8.1a.mp4,stims/wedding-8.1b.mp4,stims/wedding-8.2b.mp4,stims/wedding-8.3b.mp4,stims/wedding-8.4b.mp4,stims/wedding-8.5.mp4,stimsday1details/newpainting2.png,stimsday1details/newperson14.png,stimsday1details/new14.png,stimsday1details/painting8.png,stimsday1details/couple8.png,stimsday1details/gift8.png,stimsday1details/n8.png,stimsday1details/t8.png,stimsday1details/cn8.png,stimsday1details/ct8.png,0,2,2,4,0,0,0,0,,,,,0,0,0,0,,,,,,,,,,,,,,,,,,,,,,,,,,,,,None,None,None,None,None,None,None,None,None,None,None,None,None,None,None,None,None,None,None,,None,None,None,,None,None,,,,,,,,,,,,,,,,,,,,,,,,,,,,,,,,,,,,,,,,,,,,,,,,,,,001,8,2019_Jul_29_1434,Block3,3.1.2,60.0008008735982,
videoBlock_schemaN_pathB_2.csv,north.png,stims/wedding-8.1a.mp4,stims/wedding-8.1b.mp4,stims/wedding-8.2b.mp4,stims/wedding-8.3b.mp4,stims/wedding-8.4b.mp4,stims/wedding-8.5.mp4,stimsday1details/newpainting2.png,stimsday1details/newperson14.png,stimsday1details/new14.png,stimsday1details/painting8.png,stimsday1details/couple8.png,stimsday1details/gift8.png,stimsday1details/n8.png,stimsday1details/t8.png,stimsday1details/cn8.png,stimsday1details/ct8.png,0,2,2,4,0,0,0,0,,,,,,,,,,,,,,,,,,,,,,,,,,,,,,,,,,,,,,,,,,,,,,,,,,,,,,,,,,,,,,,3.5427045077085495e-05,None,None,,399.13092542497907,None,399.13092542497907,None,399.13092542497907,None,401.11295511195203,None,None,,401.11295511195203,None,401.11295511195203,None,403.1129384349915,None,403.1129384349915,None,None,,403.1129384349915,None,None,,405.1129165549646,None,405.1129165549646,None,405.1129165549646,None,407.11288606899325,None,407.11288606899325,None,2,1.452052963024471,407.11288606899325,None,409.11286755796755,None,1,0.7689189430093393,409.11286755796755,None,409.11286755796755,None,001,8,2019_Jul_29_1434,Block3,3.1.2,60.0008008735982,
videoBlock_schemaN_pathA_3.csv,north.png,stims/wedding-9.1a.mp4,stims/wedding-9.1b.mp4,stims/wedding-9.2a.mp4,stims/wedding-9.3a.mp4,stims/wedding-9.4a.mp4,stims/wedding-9.5.mp4,stimsday1details/newegg3.png,stimsday1details/newperson3.png,stimsday1details/gift9.png,stimsday1details/egg9.png,stimsday1details/couple9.png,stimsday1details/new3.png,stimsday1details/n9.png,stimsday1details/t9.png,stimsday1details/cn9.png,stimsday1details/ct9.png,0,3,3,2,0,0,0,0,0,0,0,0,,,,,,,,,,,,,,,,,411.34617246396374,None,2.779818821058143,None,421.12938112800475,435.3458737159963,435.36256451299414,444.3457607110031,444.36242663499434,461.3455535999965,461.3622677369858,None,484.3620557359536,508.344906882965,508.3616340860026,None,,,,,,,,,,,,,,,,,,,,,,,,,,,,,,,,,,,,,,,,,,,,,,,,,,,,,,,,,,,,,,,,,,,,,,,,,,,,,001,8,2019_Jul_29_1434,Block3,3.1.2,60.0008008735982,
videoBlock_schemaN_pathA_3.csv,north.png,stims/wedding-9.1a.mp4,stims/wedding-9.1b.mp4,stims/wedding-9.2a.mp4,stims/wedding-9.3a.mp4,stims/wedding-9.4a.mp4,stims/wedding-9.5.mp4,stimsday1details/newegg3.png,stimsday1details/newperson3.png,stimsday1details/gift9.png,stimsday1details/egg9.png,stimsday1details/couple9.png,stimsday1details/new3.png,stimsday1details/n9.png,stimsday1details/t9.png,stimsday1details/cn9.png,stimsday1details/ct9.png,0,3,3,2,0,0,0,0,,,,,0,0,0,0,,,,,,,,,,,,,,,,,,,,,,,,,,,,,None,None,None,None,None,None,None,None,None,None,None,None,None,None,None,None,None,None,None,,None,None,None,,None,None,,,,,,,,,,,,,,,,,,,,,,,,,,,,,,,,,,,,,,,,,,,,,,,,,,,001,8,2019_Jul_29_1434,Block3,3.1.2,60.0008008735982,
videoBlock_schemaN_pathA_3.csv,north.png,stims/wedding-9.1a.mp4,stims/wedding-9.1b.mp4,stims/wedding-9.2a.mp4,stims/wedding-9.3a.mp4,stims/wedding-9.4a.mp4,stims/wedding-9.5.mp4,stimsday1details/newegg3.png,stimsday1details/newperson3.png,stimsday1details/gift9.png,stimsday1details/egg9.png,stimsday1details/couple9.png,stimsday1details/new3.png,stimsday1details/n9.png,stimsday1details/t9.png,stimsday1details/cn9.png,stimsday1details/ct9.png,0,3,3,2,0,0,0,0,,,,,,,,,,,,,,,,,,,,,,,,,,,,,,,,,,,,,,,,,,,,,,,,,,,,,,,,,,,,,,,4.353298572823405e-05,None,None,,526.028090938984,None,526.028090938984,None,526.028090938984,None,528.0280569389579,None,2,1.3689589420100674,528.0280569389579,None,528.0280569389579,None,530.0280331450049,None,530.0280331450049,None,2,1.0690237329690717,530.0280331450049,None,1,1.3022833069553599,532.0280052970047,None,532.0280052970047,None,532.0280052970047,None,534.0279756929958,None,534.0279756929958,None,1,1.0356511889840476,534.0279756929958,None,536.0279630739824,None,1,0.8359779739985242,536.0279630739824,None,536.0279630739824,None,001,8,2019_Jul_29_1434,Block3,3.1.2,60.0008008735982,
videoBlock_schemaN_pathA_2.csv,north.png,stims/wedding-5.1a.mp4,stims/wedding-5.1b.mp4,stims/wedding-5.2a.mp4,stims/wedding-5.3a.mp4,stims/wedding-5.4a.mp4,stims/wedding-5.5.mp4,stimsday1details/newegg2.png,stimsday1details/couple5.png,stimsday1details/gift5.png,stimsday1details/egg5.png,stimsday1details/newperson2.png,stimsday1details/new2.png,stimsday1details/cn5.png,stimsday1details/ct5.png,stimsday1details/n5.png,stimsday1details/t5.png,0,4,4,1,0,0,0,0,0,0,0,0,,,,,,,,,,,,,,,,,538.2945256039966,None,2.810248322028201,None,548.0945313199772,562.2942963119713,562.3109644299839,571.2942818709998,571.3108591960045,588.293968315993,588.3107060719631,611.293609255983,611.3102943769773,635.2933938549832,635.3100587169756,None,,,,,,,,,,,,,,,,,,,,,,,,,,,,,,,,,,,,,,,,,,,,,,,,,,,,,,,,,,,,,,,,,,,,,,,,,,,,,001,8,2019_Jul_29_1434,Block3,3.1.2,60.0008008735982,
videoBlock_schemaN_pathA_2.csv,north.png,stims/wedding-5.1a.mp4,stims/wedding-5.1b.mp4,stims/wedding-5.2a.mp4,stims/wedding-5.3a.mp4,stims/wedding-5.4a.mp4,stims/wedding-5.5.mp4,stimsday1details/newegg2.png,stimsday1details/couple5.png,stimsday1details/gift5.png,stimsday1details/egg5.png,stimsday1details/newperson2.png,stimsday1details/new2.png,stimsday1details/cn5.png,stimsday1details/ct5.png,stimsday1details/n5.png,stimsday1details/t5.png,0,4,4,1,0,0,0,0,,,,,0,0,0,0,,,,,,,,,,,,,,,,,,,,,,,,,,,,,None,None,None,None,None,None,None,None,None,None,None,None,None,None,None,None,None,None,None,,None,None,None,,None,None,,,,,,,,,,,,,,,,,,,,,,,,,,,,,,,,,,,,,,,,,,,,,,,,,,,001,8,2019_Jul_29_1434,Block3,3.1.2,60.0008008735982,
videoBlock_schemaN_pathA_2.csv,north.png,stims/wedding-5.1a.mp4,stims/wedding-5.1b.mp4,stims/wedding-5.2a.mp4,stims/wedding-5.3a.mp4,stims/wedding-5.4a.mp4,stims/wedding-5.5.mp4,stimsday1details/newegg2.png,stimsday1details/couple5.png,stimsday1details/gift5.png,stimsday1details/egg5.png,stimsday1details/newperson2.png,stimsday1details/new2.png,stimsday1details/cn5.png,stimsday1details/ct5.png,stimsday1details/n5.png,stimsday1details/t5.png,0,4,4,1,0,0,0,0,,,,,,,,,,,,,,,,,,,,,,,,,,,,,,,,,,,,,,,,,,,,,,,,,,,,,,,,,,,,,,,2.8740032576024532e-05,None,2,0.850377689988818,653.4449625469861,None,653.4449625469861,None,653.4449625469861,None,655.4265087780077,None,2,1.8854272919707,655.4265087780077,None,655.4265087780077,None,657.4265195549815,None,657.4265195549815,None,1,1.0849628979922272,657.4265195549815,None,2,1.1020586519734934,659.4265248279553,None,659.4265248279553,None,659.4265248279553,None,661.4264216119773,None,661.4264216119773,None,1,0.8354052290087566,661.4264216119773,None,663.4263691409724,None,1,0.6855920380330645,663.4263691409724,None,663.4263691409724,None,001,8,2019_Jul_29_1434,Block3,3.1.2,60.0008008735982,
videoBlock_schemaN_pathB_3.csv,north.png,stims/wedding-11.1a.mp4,stims/wedding-11.1b.mp4,stims/wedding-11.2b.mp4,stims/wedding-11.3b.mp4,stims/wedding-11.4b.mp4,stims/wedding-11.5.mp4,stimsday1details/painting11.png,stimsday1details/couple11.png,stimsday1details/gift11.png,stimsday1details/newpainting3.png,stimsday1details/newperson15.png,stimsday1details/new15.png,stimsday1details/cn11.png,stimsday1details/ct11.png,stimsday1details/n11.png,stimsday1details/t11.png,0,5,5,5,0,0,0,0,0,0,0,0,,,,,,,,,,,,,,,,,665.7429481489817,None,None,None,None,None,None,None,None,None,None,None,None,None,None,None,,,,,,,,,,,,,,,,,,,,,,,,,,,,,,,,,,,,,,,,,,,,,,,,,,,,,,,,,,,,,,,,,,,,,,,,,,,,,001,8,2019_Jul_29_1434,Block3,3.1.2,60.0008008735982,
videoBlock_schemaN_pathB_3.csv,north.png,stims/wedding-11.1a.mp4,stims/wedding-11.1b.mp4,stims/wedding-11.2b.mp4,stims/wedding-11.3b.mp4,stims/wedding-11.4b.mp4,stims/wedding-11.5.mp4,stimsday1details/painting11.png,stimsday1details/couple11.png,stimsday1details/gift11.png,stimsday1details/newpainting3.png,stimsday1details/newperson15.png,stimsday1details/new15.png,stimsday1details/cn11.png,stimsday1details/ct11.png,stimsday1details/n11.png,stimsday1details/t11.png,0,5,5,5,0,0,0,0,,,,,0,0,0,0,,,,,,,,,,,,,,,,,,,,,,,,,,,,,2.7517928140005097,None,678.5101018749992,692.7593474729802,692.7593474729802,None,701.7592044079793,None,718.7590261729783,722.7589913129923,722.7589913129923,745.7586978809559,745.7753536079545,749.7586258759839,749.7753035149653,None,773.774937034992,None,None,,717.759036183008,722.7589913129923,None,,744.775358902989,749.7586258759839,,,,,,,,,,,,,,,,,,,,,,,,,,,,,,,,,,,,,,,,,,,,,,,,,,,001,8,2019_Jul_29_1434,Block3,3.1.2,60.0008008735982,
videoBlock_schemaN_pathB_3.csv,north.png,stims/wedding-11.1a.mp4,stims/wedding-11.1b.mp4,stims/wedding-11.2b.mp4,stims/wedding-11.3b.mp4,stims/wedding-11.4b.mp4,stims/wedding-11.5.mp4,stimsday1details/painting11.png,stimsday1details/couple11.png,stimsday1details/gift11.png,stimsday1details/newpainting3.png,stimsday1details/newperson15.png,stimsday1details/new15.png,stimsday1details/cn11.png,stimsday1details/ct11.png,stimsday1details/n11.png,stimsday1details/t11.png,0,5,5,5,0,0,0,0,,,,,,,,,,,,,,,,,,,,,,,,,,,,,,,,,,,,,,,,,,,,,,,,,,,,,,,,,,,,,,,3.9717997424304485e-05,None,2,0.6315706549794413,789.0453055349644,None,789.0453055349644,None,789.0453055349644,None,791.0247857449576,None,1,0.6188507219776511,791.0247857449576,None,791.0247857449576,None,793.0247652489925,None,793.0247652489925,None,1,0.7685097280191258,793.0247652489925,None,2,0.8856855710037053,795.0247377399937,None,795.0247377399937,None,795.0247377399937,None,797.024713856983,None,797.024713856983,None,1,1.0187899069860578,797.024713856983,None,799.0246050229762,None,1,0.6855094589991495,799.0246050229762,None,799.0246050229762,None,001,8,2019_Jul_29_1434,Block3,3.1.2,60.0008008735982,
