leftimage,rightimage,trials.thisRepN,trials.thisTrialN,trials.thisN,trials.thisIndex,leftimageLoc.started,leftimageLoc.stopped,rightimageLoc.started,rightimageLoc.stopped,answer.keys,answer.rt,answer.started,answer.stopped,Q.started,Q.stopped,ITIfixation.started,ITIfixation.stopped,session,participant,date,expName,psychopyVersion,frameRate,
stimsday2details/wedding22.png,stimsday2details/wedding1.png,0,0,0,14,8.446416464000094,None,8.446416464000094,None,l,14.112896614999954,8.446416464000094,None,8.446416464000094,None,22.58017479,None,001,6,2019_Jul_18_1805,sequencetask,3.1.3,60.16356668881518,
stimsday2details/wedding23.png,stimsday2details/wedding34.png,0,1,1,10,24.397416002,None,24.397416002,None,k,8.40680839499987,24.397416002,None,24.397416002,None,32.8302371220002,None,001,6,2019_Jul_18_1805,sequencetask,3.1.3,60.16356668881518,
stimsday2details/wedding34.png,stimsday2details/wedding23.png,0,2,2,21,34.54736629100012,None,34.54736629100012,None,l,6.649006911000015,34.54736629100012,None,34.54736629100012,None,41.213379422000116,None,001,6,2019_Jul_18_1805,sequencetask,3.1.3,60.16356668881518,
stimsday2details/wedding20.png,stimsday2details/wedding38.png,0,3,3,12,43.02960881100012,None,43.02960881100012,None,k,9.51713123200011,43.02960881100012,None,43.02960881100012,None,52.563537502000145,None,001,6,2019_Jul_18_1805,sequencetask,3.1.3,60.16356668881518,
stimsday2details/wedding6.png,stimsday2details/wedding38.png,0,4,4,0,54.330145966000146,None,54.330145966000146,None,k,8.591545446999817,54.330145966000146,None,54.330145966000146,None,62.94654008300017,None,001,6,2019_Jul_18_1805,sequencetask,3.1.3,60.16356668881518,
stimsday2details/wedding29.png,stimsday2details/wedding17.png,0,5,5,7,64.76312010000015,None,64.76312010000015,None,k,12.985481004000121,64.76312010000015,None,64.76312010000015,None,77.77971576200002,None,001,6,2019_Jul_18_1805,sequencetask,3.1.3,60.16356668881518,
stimsday2details/wedding2.png,stimsday2details/wedding29.png,0,6,6,6,79.54713833200003,None,79.54713833200003,None,k,4.111925983999981,79.54713833200003,None,79.54713833200003,None,83.67995459100007,None,001,6,2019_Jul_18_1805,sequencetask,3.1.3,60.16356668881518,
stimsday2details/wedding17.png,stimsday2details/wedding29.png,0,7,7,18,85.39987351400009,None,85.39987351400009,None,l,4.669586353999875,85.39987351400009,None,85.39987351400009,None,90.0960174700001,None,001,6,2019_Jul_18_1805,sequencetask,3.1.3,60.16356668881518,
stimsday2details/wedding38.png,stimsday2details/wedding20.png,0,8,8,1,91.81603590100008,None,91.81603590100008,None,l,1.812991237999995,91.81603590100008,None,91.81603590100008,None,93.64638693500001,None,001,6,2019_Jul_18_1805,sequencetask,3.1.3,60.16356668881518,
stimsday2details/wedding28.png,stimsday2details/wedding23.png,0,9,9,9,95.41242569100018,None,95.41242569100018,None,k,5.971184403000052,95.41242569100018,None,95.41242569100018,None,101.41281455400008,None,001,6,2019_Jul_18_1805,sequencetask,3.1.3,60.16356668881518,
stimsday2details/wedding29.png,stimsday2details/wedding2.png,0,10,10,17,103.14647390600021,None,103.14647390600021,None,k,3.183570158000066,103.14647390600021,None,103.14647390600021,None,106.36261864100015,None,001,6,2019_Jul_18_1805,sequencetask,3.1.3,60.16356668881518,
stimsday2details/wedding1.png,stimsday2details/wedding20.png,0,11,11,13,108.08355681600005,None,108.08355681600005,None,l,3.9476903649999713,108.08355681600005,None,108.08355681600005,None,112.06223702900002,None,001,6,2019_Jul_18_1805,sequencetask,3.1.3,60.16356668881518,
stimsday2details/wedding38.png,stimsday2details/wedding6.png,0,12,12,11,113.77979759300001,None,113.77979759300001,None,l,2.049250841999992,113.77979759300001,None,113.77979759300001,None,115.84585947900018,None,001,6,2019_Jul_18_1805,sequencetask,3.1.3,60.16356668881518,
stimsday2details/wedding22.png,stimsday2details/wedding19.png,0,13,13,4,117.6134593270001,None,117.6134593270001,None,k,4.916528547000098,117.6134593270001,None,117.6134593270001,None,122.56234019900012,None,001,6,2019_Jul_18_1805,sequencetask,3.1.3,60.16356668881518,
stimsday2details/wedding1.png,stimsday2details/wedding22.png,0,14,14,3,124.27969950700003,None,124.27969950700003,None,k,2.8212478590000956,124.27969950700003,None,124.27969950700003,None,127.12893892500006,None,001,6,2019_Jul_18_1805,sequencetask,3.1.3,60.16356668881518,
stimsday2details/wedding19.png,stimsday2details/wedding2.png,0,15,15,5,128.84624637600018,None,128.84624637600018,None,l,3.230391796000049,128.84624637600018,None,128.84624637600018,None,132.09559744000012,None,001,6,2019_Jul_18_1805,sequencetask,3.1.3,60.16356668881518,
stimsday2details/wedding2.png,stimsday2details/wedding19.png,0,16,16,16,133.81844914400017,None,133.81844914400017,None,k,2.322665272999984,133.81844914400017,None,133.81844914400017,None,136.16250834000016,None,001,6,2019_Jul_18_1805,sequencetask,3.1.3,60.16356668881518,
stimsday2details/wedding20.png,stimsday2details/wedding1.png,0,17,17,2,137.91498160900005,None,137.91498160900005,None,k,2.027047777000007,137.91498160900005,None,137.91498160900005,None,139.96230897600003,None,001,6,2019_Jul_18_1805,sequencetask,3.1.3,60.16356668881518,
stimsday2details/wedding28.png,stimsday2details/wedding17.png,0,18,18,19,141.68426226200017,None,141.68426226200017,None,k,5.240764937999984,141.68426226200017,None,141.68426226200017,None,146.94545033900022,None,001,6,2019_Jul_18_1805,sequencetask,3.1.3,60.16356668881518,
stimsday2details/wedding23.png,stimsday2details/wedding28.png,0,19,19,20,148.66191143600008,None,148.66191143600008,None,l,4.590805819000025,148.66191143600008,None,148.66191143600008,None,153.27869293400022,None,001,6,2019_Jul_18_1805,sequencetask,3.1.3,60.16356668881518,
stimsday2details/wedding19.png,stimsday2details/wedding22.png,0,20,20,15,155.0120919410001,None,155.0120919410001,None,l,4.896261504999984,155.0120919410001,None,155.0120919410001,None,159.9289051940002,None,001,6,2019_Jul_18_1805,sequencetask,3.1.3,60.16356668881518,
stimsday2details/wedding17.png,stimsday2details/wedding28.png,0,21,21,8,161.66226689600012,None,161.66226689600012,None,l,2.9574645810000675,161.66226689600012,None,161.66226689600012,None,164.6452784600001,None,001,6,2019_Jul_18_1805,sequencetask,3.1.3,60.16356668881518,
