northOrSouth,stimFile1a,stimFile1b,stimFile2,stimFile3,stimFile4,stimFile5,Qeggpainting1,Qeggpainting2,Qcharacter1,Qcharacter2,Qgift1,Qgift2,Qname1,Qname2,Qtheme1,Qtheme2,trials.thisRepN,trials.thisTrialN,trials.thisN,trials.thisIndex,South.thisRepN,South.thisTrialN,South.thisN,South.thisIndex,North.thisRepN,North.thisTrialN,North.thisN,North.thisIndex,noQtrials.thisRepN,noQtrials.thisTrialN,noQtrials.thisN,noQtrials.thisIndex,Qtrials.thisRepN,Qtrials.thisTrialN,Qtrials.thisN,Qtrials.thisIndex,text.started,text.stopped,prep_trigger.keys,prep_trigger.rt,prep_trigger.started,prep_trigger.stopped,waiting.started,waiting.stopped,trigger.keys,trigger.rt,trigger.started,trigger.stopped,southCueImage.started,southCueImage.stopped,northCueImage.started,northCueImage.stopped,trialNoQs.started,trialNoQs.stopped,vid1a.started,vid1a.stopped,vid1b.started,vid1b.stopped,vid2.started,vid2.stopped,vid3.started,vid3.stopped,vid4.started,vid4.stopped,vid5.started,vid5.stopped,ISI2.started,ISI2.stopped,vid1a_q.started,vid1a_q.stopped,vid1b_q.started,vid1b_q.stopped,vid2_q.started,vid2_q.stopped,l2q.started,l2q.stopped,vid3_q.started,vid3_q.stopped,l3q.started,l3q.stopped,vid4_q.started,vid4_q.stopped,vid5_q.started,vid5_q.stopped,key_resp_2.keys,key_resp_2.rt,key_resp_2.started,key_resp_2.stopped,key_resp_3.keys,key_resp_3.rt,key_resp_3.started,key_resp_3.stopped,ISI7.started,ISI7.stopped,nameQresp.keys,nameQresp.rt,nameQresp.started,nameQresp.stopped,nameQ1.started,nameQ1.stopped,nameQ2.started,nameQ2.stopped,eggPainting1.started,eggPainting1.stopped,eggPaintingQresp.keys,eggPaintingQresp.rt,eggPaintingQresp.started,eggPaintingQresp.stopped,eggPainting2.started,eggPainting2.stopped,character1.started,character1.stopped,character2.started,character2.stopped,Qcharacter.keys,Qcharacter.rt,Qcharacter.started,Qcharacter.stopped,themeQresp.keys,themeQresp.rt,themeQresp.started,themeQresp.stopped,themeQ1.started,themeQ1.stopped,themeQ2.started,themeQ2.stopped,gift1.started,gift1.stopped,gift2.started,gift2.stopped,giftQresp.keys,giftQresp.rt,giftQresp.started,giftQresp.stopped,northorsouth1.started,northorsouth1.stopped,northorsouth2.started,northorsouth2.stopped,northOrSouthQ.keys,northOrSouthQ.rt,northOrSouthQ.started,northOrSouthQ.stopped,session,participant,date,expName,psychopyVersion,frameRate,
,,,,,,,,,,,,,,,,,,,,,,,,,,,,,,,,,,,,,5.724498292023782,None,g,0.8257278990349732,5.724498292023782,None,,,,,,,,,,,,,,,,,,,,,,,,,,,,,,,,,,,,,,,,,,,,,,,,,,,,,,,,,,,,,,,,,,,,,,,,,,,,,,,,,,,,,,,,,,,,,,,,,,,,,001,6,2019_Jul_18_1712,viewing,3.1.2,60.211924674363345,
,,,,,,,,,,,,,,,,,,,,,,,,,,,,,,,,,,,,,,,,,,,6.557473741995636,None,equal,11.755106408963911,6.557473741995636,None,,,,,,,,,,,,,,,,,,,,,,,,,,,,,,,,,,,,,,,,,,,,,,,,,,,,,,,,,,,,,,,,,,,,,,,,,,,,,,,,,,,,,,,,,,,,,,,001,6,2019_Jul_18_1712,viewing,3.1.2,60.211924674363345,
south.png,stims/wedding-6.1a.mp4,stims/wedding-6.1b.mp4,stims/wedding-6.2b.mp4,stims/wedding-6.3a.mp4,stims/wedding-6.4b.mp4,stims/wedding-6.5.mp4,stimsday2details/newpainting13.png,stimsday2details/painting6.png,stimsday2details/newperson25.png,stimsday2details/couple6.png,stimsday2details/gift6.png,stimsday2details/new25.png,stimsday2details/cn6.png,stimsday2details/n6.png,stimsday2details/ct6.png,stimsday2details/t6.png,0,0,0,0,0,0,0,0,,,,,,,,,,,,,,,,,,,,,,,,,18.340370764024556,None,,,,,,,,,,,,,,,,,,,,,,,,,,,,,,,,,,,,,,,,,,,,,,,,,,,,,,,,,,,,,,,,,,,,,,,,,,,,,,,,,,,,,,,,,,,,,001,6,2019_Jul_18_1712,viewing,3.1.2,60.211924674363345,
south.png,stims/wedding-6.1a.mp4,stims/wedding-6.1b.mp4,stims/wedding-6.2b.mp4,stims/wedding-6.3a.mp4,stims/wedding-6.4b.mp4,stims/wedding-6.5.mp4,stimsday2details/newpainting13.png,stimsday2details/painting6.png,stimsday2details/newperson25.png,stimsday2details/couple6.png,stimsday2details/gift6.png,stimsday2details/new25.png,stimsday2details/cn6.png,stimsday2details/n6.png,stimsday2details/ct6.png,stimsday2details/t6.png,0,0,0,0,,,,,0,0,0,0,,,,,,,,,,,,,,,,,,,,,,,None,None,,,,,,,,,,,,,,,,,,,,,,,,,,,,,,,,,,,,,,,,,,,,,,,,,,,,,,,,,,,,,,,,,,,,,,,,,,,,,,,,,,,,,,,,,,,001,6,2019_Jul_18_1712,viewing,3.1.2,60.211924674363345,
south.png,stims/wedding-6.1a.mp4,stims/wedding-6.1b.mp4,stims/wedding-6.2b.mp4,stims/wedding-6.3a.mp4,stims/wedding-6.4b.mp4,stims/wedding-6.5.mp4,stimsday2details/newpainting13.png,stimsday2details/painting6.png,stimsday2details/newperson25.png,stimsday2details/couple6.png,stimsday2details/gift6.png,stimsday2details/new25.png,stimsday2details/cn6.png,stimsday2details/n6.png,stimsday2details/ct6.png,stimsday2details/t6.png,0,0,0,0,,,,,,,,,0,0,0,0,,,,,,,,,,,,,,,,,,,,,None,None,None,None,None,None,None,None,None,None,None,None,None,None,,,,,,,,,,,,,,,,,,,,,,,,,,,,,,,,,,,,,,,,,,,,,,,,,,,,,,,,,,,,,,,,,,,,,,,,,,,,,001,6,2019_Jul_18_1712,viewing,3.1.2,60.211924674363345,
south.png,stims/wedding-6.1a.mp4,stims/wedding-6.1b.mp4,stims/wedding-6.2b.mp4,stims/wedding-6.3a.mp4,stims/wedding-6.4b.mp4,stims/wedding-6.5.mp4,stimsday2details/newpainting13.png,stimsday2details/painting6.png,stimsday2details/newperson25.png,stimsday2details/couple6.png,stimsday2details/gift6.png,stimsday2details/new25.png,stimsday2details/cn6.png,stimsday2details/n6.png,stimsday2details/ct6.png,stimsday2details/t6.png,0,0,0,0,,,,,,,,,,,,,0,0,0,0,,,,,,,,,,,,,,,,,,,,,,,,,,,,,,,2.6833304039901122,None,30.90714135899907,56.226679479004815,56.239652503049,None,65.23931284603896,None,82.24385163502302,86.22357891802676,86.2397476240294,109.22316172102,109.24404376401799,113.22618081903784,113.24348058103351,None,137.23866947100032,None,['1'],[2.9195392599795014],81.23940287000732,86.22357891802676,['2'],[2.4215081820148043],108.24016519205179,113.22618081903784,,,,,,,,,,,,,,,,,,,,,,,,,,,,,,,,,,,,,,,,,,,,,,,,,,,001,6,2019_Jul_18_1712,viewing,3.1.2,60.211924674363345,
south.png,stims/wedding-6.1a.mp4,stims/wedding-6.1b.mp4,stims/wedding-6.2b.mp4,stims/wedding-6.3a.mp4,stims/wedding-6.4b.mp4,stims/wedding-6.5.mp4,stimsday2details/newpainting13.png,stimsday2details/painting6.png,stimsday2details/newperson25.png,stimsday2details/couple6.png,stimsday2details/gift6.png,stimsday2details/new25.png,stimsday2details/cn6.png,stimsday2details/n6.png,stimsday2details/ct6.png,stimsday2details/t6.png,0,0,0,0,,,,,,,,,,,,,,,,,,,,,,,,,,,,,,,,,,,,,,,,,,,,,,,,,,,,,,,,,,,,,,,,,,,,,,,,,2.753903390839696e-05,None,2,1.0843274740036577,157.9561058600084,None,157.9561058600084,None,157.9561058600084,None,159.95585357700475,None,2,0.6675700890482403,159.95585357700475,None,159.95585357700475,None,161.96003254002426,None,161.96003254002426,None,2,0.7351611540070735,161.96003254002426,None,2,0.8863362290430814,163.9551312730182,None,163.9551312730182,None,163.9551312730182,None,165.96011218399508,None,165.96011218399508,None,1,0.7890959960059263,165.96011218399508,None,167.96027697104728,None,167.96027697104728,None,2,0.9381165949744172,167.96027697104728,None,001,6,2019_Jul_18_1712,viewing,3.1.2,60.211924674363345,
north.png,stims/wedding-38.1a.mp4,stims/wedding-38.1b.mp4,stims/wedding-38.2b.mp4,stims/wedding-38.3b.mp4,stims/wedding-38.4b.mp4,stims/wedding-38.5.mp4,stimsday2details/newpainting14.png,stimsday2details/painting38.png,stimsday2details/newperson26.png,stimsday2details/couple38.png,stimsday2details/gift38.png,stimsday2details/new26.png,stimsday2details/cn38.png,stimsday2details/n38.png,stimsday2details/t38.png,stimsday2details/ct38.png,0,1,1,1,0,0,0,0,,,,,,,,,,,,,,,,,,,,,,,,,None,None,,,,,,,,,,,,,,,,,,,,,,,,,,,,,,,,,,,,,,,,,,,,,,,,,,,,,,,,,,,,,,,,,,,,,,,,,,,,,,,,,,,,,,,,,,,,,001,6,2019_Jul_18_1712,viewing,3.1.2,60.211924674363345,
north.png,stims/wedding-38.1a.mp4,stims/wedding-38.1b.mp4,stims/wedding-38.2b.mp4,stims/wedding-38.3b.mp4,stims/wedding-38.4b.mp4,stims/wedding-38.5.mp4,stimsday2details/newpainting14.png,stimsday2details/painting38.png,stimsday2details/newperson26.png,stimsday2details/couple38.png,stimsday2details/gift38.png,stimsday2details/new26.png,stimsday2details/cn38.png,stimsday2details/n38.png,stimsday2details/t38.png,stimsday2details/ct38.png,0,1,1,1,,,,,0,0,0,0,,,,,,,,,,,,,,,,,,,,,,,170.00501667003846,None,,,,,,,,,,,,,,,,,,,,,,,,,,,,,,,,,,,,,,,,,,,,,,,,,,,,,,,,,,,,,,,,,,,,,,,,,,,,,,,,,,,,,,,,,,,001,6,2019_Jul_18_1712,viewing,3.1.2,60.211924674363345,
north.png,stims/wedding-38.1a.mp4,stims/wedding-38.1b.mp4,stims/wedding-38.2b.mp4,stims/wedding-38.3b.mp4,stims/wedding-38.4b.mp4,stims/wedding-38.5.mp4,stimsday2details/newpainting14.png,stimsday2details/painting38.png,stimsday2details/newperson26.png,stimsday2details/couple38.png,stimsday2details/gift38.png,stimsday2details/new26.png,stimsday2details/cn38.png,stimsday2details/n38.png,stimsday2details/t38.png,stimsday2details/ct38.png,0,1,1,1,,,,,,,,,0,0,0,0,,,,,,,,,,,,,,,,,,,,,3.131440020049922,None,180.1887903000461,205.0605206330074,205.07263980305288,None,214.07204229803756,None,231.07091982103884,254.05881069303723,254.07065650902223,None,278.07032923202496,None,,,,,,,,,,,,,,,,,,,,,,,,,,,,,,,,,,,,,,,,,,,,,,,,,,,,,,,,,,,,,,,,,,,,,,,,,,,,,001,6,2019_Jul_18_1712,viewing,3.1.2,60.211924674363345,
north.png,stims/wedding-38.1a.mp4,stims/wedding-38.1b.mp4,stims/wedding-38.2b.mp4,stims/wedding-38.3b.mp4,stims/wedding-38.4b.mp4,stims/wedding-38.5.mp4,stimsday2details/newpainting14.png,stimsday2details/painting38.png,stimsday2details/newperson26.png,stimsday2details/couple38.png,stimsday2details/gift38.png,stimsday2details/new26.png,stimsday2details/cn38.png,stimsday2details/n38.png,stimsday2details/t38.png,stimsday2details/ct38.png,0,1,1,1,,,,,,,,,,,,,0,0,0,0,,,,,,,,,,,,,,,,,,,,,,,,,,,,,,,None,None,None,None,None,None,None,None,None,None,None,None,None,None,None,None,None,None,None,,None,None,None,,None,None,,,,,,,,,,,,,,,,,,,,,,,,,,,,,,,,,,,,,,,,,,,,,,,,,,,001,6,2019_Jul_18_1712,viewing,3.1.2,60.211924674363345,
north.png,stims/wedding-38.1a.mp4,stims/wedding-38.1b.mp4,stims/wedding-38.2b.mp4,stims/wedding-38.3b.mp4,stims/wedding-38.4b.mp4,stims/wedding-38.5.mp4,stimsday2details/newpainting14.png,stimsday2details/painting38.png,stimsday2details/newperson26.png,stimsday2details/couple38.png,stimsday2details/gift38.png,stimsday2details/new26.png,stimsday2details/cn38.png,stimsday2details/n38.png,stimsday2details/t38.png,stimsday2details/ct38.png,0,1,1,1,,,,,,,,,,,,,,,,,,,,,,,,,,,,,,,,,,,,,,,,,,,,,,,,,,,,,,,,,,,,,,,,,,,,,,,,,2.798001514747739e-05,None,2,0.9684856319800019,301.7033611870138,None,301.7033611870138,None,301.7033611870138,None,303.70820794900646,None,2,0.8147005810169503,303.70820794900646,None,303.70820794900646,None,305.70731915399665,None,305.70731915399665,None,2,1.131820205016993,305.70731915399665,None,1,0.9019097739947028,307.70327844202984,None,307.70327844202984,None,307.70327844202984,None,309.7080147030065,None,309.7080147030065,None,1,0.8305430490290746,309.7080147030065,None,311.7081086880062,None,311.7081086880062,None,1,1.0800550259882584,311.7081086880062,None,001,6,2019_Jul_18_1712,viewing,3.1.2,60.211924674363345,
north.png,stims/wedding-20.1a.mp4,stims/wedding-20.1b.mp4,stims/wedding-20.2b.mp4,stims/wedding-20.3b.mp4,stims/wedding-20.4b.mp4,stims/wedding-20.5.mp4,stimsday2details/newpainting15.png,stimsday2details/painting20.png,stimsday2details/couple20.png,stimsday2details/newperson27.png,stimsday2details/new27.png,stimsday2details/gift20.png,stimsday2details/cn20.png,stimsday2details/n20.png,stimsday2details/t20.png,stimsday2details/ct20.png,0,2,2,2,0,0,0,0,,,,,,,,,,,,,,,,,,,,,,,,,None,None,,,,,,,,,,,,,,,,,,,,,,,,,,,,,,,,,,,,,,,,,,,,,,,,,,,,,,,,,,,,,,,,,,,,,,,,,,,,,,,,,,,,,,,,,,,,,001,6,2019_Jul_18_1712,viewing,3.1.2,60.211924674363345,
north.png,stims/wedding-20.1a.mp4,stims/wedding-20.1b.mp4,stims/wedding-20.2b.mp4,stims/wedding-20.3b.mp4,stims/wedding-20.4b.mp4,stims/wedding-20.5.mp4,stimsday2details/newpainting15.png,stimsday2details/painting20.png,stimsday2details/couple20.png,stimsday2details/newperson27.png,stimsday2details/new27.png,stimsday2details/gift20.png,stimsday2details/cn20.png,stimsday2details/n20.png,stimsday2details/t20.png,stimsday2details/ct20.png,0,2,2,2,,,,,0,0,0,0,,,,,,,,,,,,,,,,,,,,,,,313.77068493905244,None,,,,,,,,,,,,,,,,,,,,,,,,,,,,,,,,,,,,,,,,,,,,,,,,,,,,,,,,,,,,,,,,,,,,,,,,,,,,,,,,,,,,,,,,,,,001,6,2019_Jul_18_1712,viewing,3.1.2,60.211924674363345,
north.png,stims/wedding-20.1a.mp4,stims/wedding-20.1b.mp4,stims/wedding-20.2b.mp4,stims/wedding-20.3b.mp4,stims/wedding-20.4b.mp4,stims/wedding-20.5.mp4,stimsday2details/newpainting15.png,stimsday2details/painting20.png,stimsday2details/couple20.png,stimsday2details/newperson27.png,stimsday2details/new27.png,stimsday2details/gift20.png,stimsday2details/cn20.png,stimsday2details/n20.png,stimsday2details/t20.png,stimsday2details/ct20.png,0,2,2,2,,,,,,,,,0,0,0,0,,,,,,,,,,,,,,,,,,,,,2.9660684909904376,None,323.81998290203046,348.85525742400205,348.85525742400205,None,357.8693386230152,None,374.87025607400574,397.8568549180054,397.86960105999606,None,421.86855101102265,None,,,,,,,,,,,,,,,,,,,,,,,,,,,,,,,,,,,,,,,,,,,,,,,,,,,,,,,,,,,,,,,,,,,,,,,,,,,,,001,6,2019_Jul_18_1712,viewing,3.1.2,60.211924674363345,
north.png,stims/wedding-20.1a.mp4,stims/wedding-20.1b.mp4,stims/wedding-20.2b.mp4,stims/wedding-20.3b.mp4,stims/wedding-20.4b.mp4,stims/wedding-20.5.mp4,stimsday2details/newpainting15.png,stimsday2details/painting20.png,stimsday2details/couple20.png,stimsday2details/newperson27.png,stimsday2details/new27.png,stimsday2details/gift20.png,stimsday2details/cn20.png,stimsday2details/n20.png,stimsday2details/t20.png,stimsday2details/ct20.png,0,2,2,2,,,,,,,,,,,,,0,0,0,0,,,,,,,,,,,,,,,,,,,,,,,,,,,,,,,None,None,None,None,None,None,None,None,None,None,None,None,None,None,None,None,None,None,None,,None,None,None,,None,None,,,,,,,,,,,,,,,,,,,,,,,,,,,,,,,,,,,,,,,,,,,,,,,,,,,001,6,2019_Jul_18_1712,viewing,3.1.2,60.211924674363345,
north.png,stims/wedding-20.1a.mp4,stims/wedding-20.1b.mp4,stims/wedding-20.2b.mp4,stims/wedding-20.3b.mp4,stims/wedding-20.4b.mp4,stims/wedding-20.5.mp4,stimsday2details/newpainting15.png,stimsday2details/painting20.png,stimsday2details/couple20.png,stimsday2details/newperson27.png,stimsday2details/new27.png,stimsday2details/gift20.png,stimsday2details/cn20.png,stimsday2details/n20.png,stimsday2details/t20.png,stimsday2details/ct20.png,0,2,2,2,,,,,,,,,,,,,,,,,,,,,,,,,,,,,,,,,,,,,,,,,,,,,,,,,,,,,,,,,,,,,,,,,,,,,,,,,3.9371021557599306e-05,None,2,0.9891090950113721,444.46903719904367,None,444.46903719904367,None,444.46903719904367,None,446.46900626202114,None,2,0.9387045149924234,446.46900626202114,None,446.46900626202114,None,448.4687956830021,None,448.4687956830021,None,1,0.768192938005086,448.4687956830021,None,1,1.2432113789836876,450.46863972302526,None,450.46863972302526,None,450.46863972302526,None,452.4734759790008,None,452.4734759790008,None,2,0.7887147339642979,452.4734759790008,None,454.47270686901174,None,454.47270686901174,None,1,1.0226126199704595,454.47270686901174,None,001,6,2019_Jul_18_1712,viewing,3.1.2,60.211924674363345,
south.png,stims/wedding-1.1a.mp4,stims/wedding-1.1b.mp4,stims/wedding-1.2b.mp4,stims/wedding-1.3a.mp4,stims/wedding-1.4b.mp4,stims/wedding-1.5.mp4,stimsday2details/newpainting16.png,stimsday2details/painting1.png,stimsday2details/newperson28.png,stimsday2details/couple1.png,stimsday2details/new28.png,stimsday2details/gift1.png,stimsday2details/cn1.png,stimsday2details/n1.png,stimsday2details/ct1.png,stimsday2details/t1.png,0,3,3,3,0,0,0,0,,,,,,,,,,,,,,,,,,,,,,,,,456.4678693160531,None,,,,,,,,,,,,,,,,,,,,,,,,,,,,,,,,,,,,,,,,,,,,,,,,,,,,,,,,,,,,,,,,,,,,,,,,,,,,,,,,,,,,,,,,,,,,,001,6,2019_Jul_18_1712,viewing,3.1.2,60.211924674363345,
south.png,stims/wedding-1.1a.mp4,stims/wedding-1.1b.mp4,stims/wedding-1.2b.mp4,stims/wedding-1.3a.mp4,stims/wedding-1.4b.mp4,stims/wedding-1.5.mp4,stimsday2details/newpainting16.png,stimsday2details/painting1.png,stimsday2details/newperson28.png,stimsday2details/couple1.png,stimsday2details/new28.png,stimsday2details/gift1.png,stimsday2details/cn1.png,stimsday2details/n1.png,stimsday2details/ct1.png,stimsday2details/t1.png,0,3,3,3,,,,,0,0,0,0,,,,,,,,,,,,,,,,,,,,,,,None,None,,,,,,,,,,,,,,,,,,,,,,,,,,,,,,,,,,,,,,,,,,,,,,,,,,,,,,,,,,,,,,,,,,,,,,,,,,,,,,,,,,,,,,,,,,,001,6,2019_Jul_18_1712,viewing,3.1.2,60.211924674363345,
south.png,stims/wedding-1.1a.mp4,stims/wedding-1.1b.mp4,stims/wedding-1.2b.mp4,stims/wedding-1.3a.mp4,stims/wedding-1.4b.mp4,stims/wedding-1.5.mp4,stimsday2details/newpainting16.png,stimsday2details/painting1.png,stimsday2details/newperson28.png,stimsday2details/couple1.png,stimsday2details/new28.png,stimsday2details/gift1.png,stimsday2details/cn1.png,stimsday2details/n1.png,stimsday2details/ct1.png,stimsday2details/t1.png,0,3,3,3,,,,,,,,,0,0,0,0,,,,,,,,,,,,,,,,,,,,,3.0508729580324143,None,466.7014410250122,491.6507915240363,491.6675966180046,None,500.6541437920532,None,517.668343938014,540.6511955659953,540.6511955659953,564.6519494400127,564.6683206669986,None,,,,,,,,,,,,,,,,,,,,,,,,,,,,,,,,,,,,,,,,,,,,,,,,,,,,,,,,,,,,,,,,,,,,,,,,,,,,,001,6,2019_Jul_18_1712,viewing,3.1.2,60.211924674363345,
south.png,stims/wedding-1.1a.mp4,stims/wedding-1.1b.mp4,stims/wedding-1.2b.mp4,stims/wedding-1.3a.mp4,stims/wedding-1.4b.mp4,stims/wedding-1.5.mp4,stimsday2details/newpainting16.png,stimsday2details/painting1.png,stimsday2details/newperson28.png,stimsday2details/couple1.png,stimsday2details/new28.png,stimsday2details/gift1.png,stimsday2details/cn1.png,stimsday2details/n1.png,stimsday2details/ct1.png,stimsday2details/t1.png,0,3,3,3,,,,,,,,,,,,,0,0,0,0,,,,,,,,,,,,,,,,,,,,,,,,,,,,,,,None,None,None,None,None,None,None,None,None,None,None,None,None,None,None,None,None,None,None,,None,None,None,,None,None,,,,,,,,,,,,,,,,,,,,,,,,,,,,,,,,,,,,,,,,,,,,,,,,,,,001,6,2019_Jul_18_1712,viewing,3.1.2,60.211924674363345,
south.png,stims/wedding-1.1a.mp4,stims/wedding-1.1b.mp4,stims/wedding-1.2b.mp4,stims/wedding-1.3a.mp4,stims/wedding-1.4b.mp4,stims/wedding-1.5.mp4,stimsday2details/newpainting16.png,stimsday2details/painting1.png,stimsday2details/newperson28.png,stimsday2details/couple1.png,stimsday2details/new28.png,stimsday2details/gift1.png,stimsday2details/cn1.png,stimsday2details/n1.png,stimsday2details/ct1.png,stimsday2details/t1.png,0,3,3,3,,,,,,,,,,,,,,,,,,,,,,,,,,,,,,,,,,,,,,,,,,,,,,,,,,,,,,,,,,,,,,,,,,,,,,,,,3.677798667922616e-05,None,2,0.9733691189903766,588.2663106350228,None,588.2663106350228,None,588.2663106350228,None,590.2500826650066,None,2,0.8075822560349479,590.2500826650066,None,590.2500826650066,None,592.249569319014,None,592.249569319014,None,2,0.9020255220239051,592.249569319014,None,2,1.4724713410250843,594.2505849480513,None,594.2505849480513,None,594.2505849480513,None,596.2506612590514,None,596.2506612590514,None,2,1.0714033340336755,596.2506612590514,None,598.2494067700463,None,598.2494067700463,None,None,,598.2494067700463,None,001,6,2019_Jul_18_1712,viewing,3.1.2,60.211924674363345,
south.png,stims/wedding-22.1a.mp4,stims/wedding-22.1b.mp4,stims/wedding-22.2a.mp4,stims/wedding-22.3b.mp4,stims/wedding-22.4a.mp4,stims/wedding-22.5.mp4,stimsday2details/newegg13.png,stimsday2details/egg22.png,stimsday2details/couple22.png,stimsday2details/newperson29.png,stimsday2details/gift22.png,stimsday2details/new29.png,stimsday2details/cn22.png,stimsday2details/n22.png,stimsday2details/ct22.png,stimsday2details/t22.png,0,4,4,4,0,0,0,0,,,,,,,,,,,,,,,,,,,,,,,,,600.2504744020407,None,,,,,,,,,,,,,,,,,,,,,,,,,,,,,,,,,,,,,,,,,,,,,,,,,,,,,,,,,,,,,,,,,,,,,,,,,,,,,,,,,,,,,,,,,,,,,001,6,2019_Jul_18_1712,viewing,3.1.2,60.211924674363345,
south.png,stims/wedding-22.1a.mp4,stims/wedding-22.1b.mp4,stims/wedding-22.2a.mp4,stims/wedding-22.3b.mp4,stims/wedding-22.4a.mp4,stims/wedding-22.5.mp4,stimsday2details/newegg13.png,stimsday2details/egg22.png,stimsday2details/couple22.png,stimsday2details/newperson29.png,stimsday2details/gift22.png,stimsday2details/new29.png,stimsday2details/cn22.png,stimsday2details/n22.png,stimsday2details/ct22.png,stimsday2details/t22.png,0,4,4,4,,,,,0,0,0,0,,,,,,,,,,,,,,,,,,,,,,,None,None,,,,,,,,,,,,,,,,,,,,,,,,,,,,,,,,,,,,,,,,,,,,,,,,,,,,,,,,,,,,,,,,,,,,,,,,,,,,,,,,,,,,,,,,,,,001,6,2019_Jul_18_1712,viewing,3.1.2,60.211924674363345,
south.png,stims/wedding-22.1a.mp4,stims/wedding-22.1b.mp4,stims/wedding-22.2a.mp4,stims/wedding-22.3b.mp4,stims/wedding-22.4a.mp4,stims/wedding-22.5.mp4,stimsday2details/newegg13.png,stimsday2details/egg22.png,stimsday2details/couple22.png,stimsday2details/newperson29.png,stimsday2details/gift22.png,stimsday2details/new29.png,stimsday2details/cn22.png,stimsday2details/n22.png,stimsday2details/ct22.png,stimsday2details/t22.png,0,4,4,4,,,,,,,,,0,0,0,0,,,,,,,,,,,,,,,,,,,,,3.2310463920002803,None,610.7001320680138,635.4668159110006,635.4827785820235,None,644.4826441630139,661.4682064160006,661.4829298240365,684.4697196580237,684.4829426630167,708.4690307470155,708.4817017670139,None,,,,,,,,,,,,,,,,,,,,,,,,,,,,,,,,,,,,,,,,,,,,,,,,,,,,,,,,,,,,,,,,,,,,,,,,,,,,,001,6,2019_Jul_18_1712,viewing,3.1.2,60.211924674363345,
south.png,stims/wedding-22.1a.mp4,stims/wedding-22.1b.mp4,stims/wedding-22.2a.mp4,stims/wedding-22.3b.mp4,stims/wedding-22.4a.mp4,stims/wedding-22.5.mp4,stimsday2details/newegg13.png,stimsday2details/egg22.png,stimsday2details/couple22.png,stimsday2details/newperson29.png,stimsday2details/gift22.png,stimsday2details/new29.png,stimsday2details/cn22.png,stimsday2details/n22.png,stimsday2details/ct22.png,stimsday2details/t22.png,0,4,4,4,,,,,,,,,,,,,0,0,0,0,,,,,,,,,,,,,,,,,,,,,,,,,,,,,,,None,None,None,None,None,None,None,None,None,None,None,None,None,None,None,None,None,None,None,,None,None,None,,None,None,,,,,,,,,,,,,,,,,,,,,,,,,,,,,,,,,,,,,,,,,,,,,,,,,,,001,6,2019_Jul_18_1712,viewing,3.1.2,60.211924674363345,
south.png,stims/wedding-22.1a.mp4,stims/wedding-22.1b.mp4,stims/wedding-22.2a.mp4,stims/wedding-22.3b.mp4,stims/wedding-22.4a.mp4,stims/wedding-22.5.mp4,stimsday2details/newegg13.png,stimsday2details/egg22.png,stimsday2details/couple22.png,stimsday2details/newperson29.png,stimsday2details/gift22.png,stimsday2details/new29.png,stimsday2details/cn22.png,stimsday2details/n22.png,stimsday2details/ct22.png,stimsday2details/t22.png,0,4,4,4,,,,,,,,,,,,,,,,,,,,,,,,,,,,,,,,,,,,,,,,,,,,,,,,,,,,,,,,,,,,,,,,,,,,,,,,,3.651599399745464e-05,None,2,0.9333429539692588,732.23181586602,None,732.23181586602,None,732.23181586602,None,734.2354715330293,None,2,0.8152244089869782,734.2354715330293,None,734.2354715330293,None,736.2312868480221,None,736.2312868480221,None,1,0.6904157300014049,736.2312868480221,None,2,1.356925998989027,738.219340894022,None,738.219340894022,None,738.219340894022,None,740.2196806060383,None,740.2196806060383,None,1,0.7847394309937954,740.2196806060383,None,742.2145013100235,None,742.2145013100235,None,2,1.7027525230078027,742.2145013100235,None,001,6,2019_Jul_18_1712,viewing,3.1.2,60.211924674363345,
north.png,stims/wedding-19.1a.mp4,stims/wedding-19.1b.mp4,stims/wedding-19.2a.mp4,stims/wedding-19.3a.mp4,stims/wedding-19.4a.mp4,stims/wedding-19.5.mp4,stimsday2details/newegg14.png,stimsday2details/egg19.png,stimsday2details/couple19.png,stimsday2details/newperson30.png,stimsday2details/gift19.png,stimsday2details/new30.png,stimsday2details/cn19.png,stimsday2details/n19.png,stimsday2details/ct19.png,stimsday2details/t19.png,0,5,5,5,0,0,0,0,,,,,,,,,,,,,,,,,,,,,,,,,None,None,,,,,,,,,,,,,,,,,,,,,,,,,,,,,,,,,,,,,,,,,,,,,,,,,,,,,,,,,,,,,,,,,,,,,,,,,,,,,,,,,,,,,,,,,,,,,001,6,2019_Jul_18_1712,viewing,3.1.2,60.211924674363345,
north.png,stims/wedding-19.1a.mp4,stims/wedding-19.1b.mp4,stims/wedding-19.2a.mp4,stims/wedding-19.3a.mp4,stims/wedding-19.4a.mp4,stims/wedding-19.5.mp4,stimsday2details/newegg14.png,stimsday2details/egg19.png,stimsday2details/couple19.png,stimsday2details/newperson30.png,stimsday2details/gift19.png,stimsday2details/new30.png,stimsday2details/cn19.png,stimsday2details/n19.png,stimsday2details/ct19.png,stimsday2details/t19.png,0,5,5,5,,,,,0,0,0,0,,,,,,,,,,,,,,,,,,,,,,,744.3483722160454,None,,,,,,,,,,,,,,,,,,,,,,,,,,,,,,,,,,,,,,,,,,,,,,,,,,,,,,,,,,,,,,,,,,,,,,,,,,,,,,,,,,,,,,,,,,,001,6,2019_Jul_18_1712,viewing,3.1.2,60.211924674363345,
north.png,stims/wedding-19.1a.mp4,stims/wedding-19.1b.mp4,stims/wedding-19.2a.mp4,stims/wedding-19.3a.mp4,stims/wedding-19.4a.mp4,stims/wedding-19.5.mp4,stimsday2details/newegg14.png,stimsday2details/egg19.png,stimsday2details/couple19.png,stimsday2details/newperson30.png,stimsday2details/gift19.png,stimsday2details/new30.png,stimsday2details/cn19.png,stimsday2details/n19.png,stimsday2details/ct19.png,stimsday2details/t19.png,0,5,5,5,,,,,,,,,0,0,0,0,,,,,,,,,,,,,,,,,,,,,3.1400143819628283,None,754.6309749910142,779.4805614390061,779.4974550660118,None,788.4972981280298,805.4847385040484,805.4979387460044,828.4850074250135,828.4969333060435,None,852.4963674000464,None,,,,,,,,,,,,,,,,,,,,,,,,,,,,,,,,,,,,,,,,,,,,,,,,,,,,,,,,,,,,,,,,,,,,,,,,,,,,,001,6,2019_Jul_18_1712,viewing,3.1.2,60.211924674363345,
north.png,stims/wedding-19.1a.mp4,stims/wedding-19.1b.mp4,stims/wedding-19.2a.mp4,stims/wedding-19.3a.mp4,stims/wedding-19.4a.mp4,stims/wedding-19.5.mp4,stimsday2details/newegg14.png,stimsday2details/egg19.png,stimsday2details/couple19.png,stimsday2details/newperson30.png,stimsday2details/gift19.png,stimsday2details/new30.png,stimsday2details/cn19.png,stimsday2details/n19.png,stimsday2details/ct19.png,stimsday2details/t19.png,0,5,5,5,,,,,,,,,,,,,0,0,0,0,,,,,,,,,,,,,,,,,,,,,,,,,,,,,,,None,None,None,None,None,None,None,None,None,None,None,None,None,None,None,None,None,None,None,,None,None,None,,None,None,,,,,,,,,,,,,,,,,,,,,,,,,,,,,,,,,,,,,,,,,,,,,,,,,,,001,6,2019_Jul_18_1712,viewing,3.1.2,60.211924674363345,
north.png,stims/wedding-19.1a.mp4,stims/wedding-19.1b.mp4,stims/wedding-19.2a.mp4,stims/wedding-19.3a.mp4,stims/wedding-19.4a.mp4,stims/wedding-19.5.mp4,stimsday2details/newegg14.png,stimsday2details/egg19.png,stimsday2details/couple19.png,stimsday2details/newperson30.png,stimsday2details/gift19.png,stimsday2details/new30.png,stimsday2details/cn19.png,stimsday2details/n19.png,stimsday2details/ct19.png,stimsday2details/t19.png,0,5,5,5,,,,,,,,,,,,,,,,,,,,,,,,,,,,,,,,,,,,,,,,,,,,,,,,,,,,,,,,,,,,,,,,,,,,,,,,,4.446599632501602e-05,None,2,1.0224542560172267,876.7794276630157,None,876.7794276630157,None,876.7794276630157,None,878.7631304000388,None,2,0.7882489130133763,878.7631304000388,None,878.7631304000388,None,880.7677126210183,None,880.7677126210183,None,1,0.7316295119817369,880.7677126210183,None,2,1.0730710180359893,882.7635900620371,None,882.7635900620371,None,882.7635900620371,None,884.7676363810315,None,884.7676363810315,None,1,0.7806491079973057,884.7676363810315,None,886.7637400540407,None,886.7637400540407,None,2,1.6846096840454265,886.7637400540407,None,001,6,2019_Jul_18_1712,viewing,3.1.2,60.211924674363345,
north.png,stims/wedding-2.1a.mp4,stims/wedding-2.1b.mp4,stims/wedding-2.2b.mp4,stims/wedding-2.3b.mp4,stims/wedding-2.4b.mp4,stims/wedding-2.5.mp4,stimsday2details/painting2.png,stimsday2details/newpainting17.png,stimsday2details/couple2.png,stimsday2details/newperson31.png,stimsday2details/new31.png,stimsday2details/gift2.png,stimsday2details/cn2.png,stimsday2details/n2.png,stimsday2details/t2.png,stimsday2details/ct2.png,0,6,6,6,0,0,0,0,,,,,,,,,,,,,,,,,,,,,,,,,None,None,,,,,,,,,,,,,,,,,,,,,,,,,,,,,,,,,,,,,,,,,,,,,,,,,,,,,,,,,,,,,,,,,,,,,,,,,,,,,,,,,,,,,,,,,,,,,001,6,2019_Jul_18_1712,viewing,3.1.2,60.211924674363345,
north.png,stims/wedding-2.1a.mp4,stims/wedding-2.1b.mp4,stims/wedding-2.2b.mp4,stims/wedding-2.3b.mp4,stims/wedding-2.4b.mp4,stims/wedding-2.5.mp4,stimsday2details/painting2.png,stimsday2details/newpainting17.png,stimsday2details/couple2.png,stimsday2details/newperson31.png,stimsday2details/new31.png,stimsday2details/gift2.png,stimsday2details/cn2.png,stimsday2details/n2.png,stimsday2details/t2.png,stimsday2details/ct2.png,0,6,6,6,,,,,0,0,0,0,,,,,,,,,,,,,,,,,,,,,,,888.9136981460033,None,,,,,,,,,,,,,,,,,,,,,,,,,,,,,,,,,,,,,,,,,,,,,,,,,,,,,,,,,,,,,,,,,,,,,,,,,,,,,,,,,,,,,,,,,,,001,6,2019_Jul_18_1712,viewing,3.1.2,60.211924674363345,
north.png,stims/wedding-2.1a.mp4,stims/wedding-2.1b.mp4,stims/wedding-2.2b.mp4,stims/wedding-2.3b.mp4,stims/wedding-2.4b.mp4,stims/wedding-2.5.mp4,stimsday2details/painting2.png,stimsday2details/newpainting17.png,stimsday2details/couple2.png,stimsday2details/newperson31.png,stimsday2details/new31.png,stimsday2details/gift2.png,stimsday2details/cn2.png,stimsday2details/n2.png,stimsday2details/t2.png,stimsday2details/ct2.png,0,6,6,6,,,,,,,,,0,0,0,0,,,,,,,,,,,,,,,,,,,,,3.0623092249734327,None,899.3796890550293,None,924.3292796130409,None,933.3296834740322,None,950.3295665490441,973.3133202300523,973.3282007280504,997.3125792110222,997.3291802860331,None,,,,,,,,,,,,,,,,,,,,,,,,,,,,,,,,,,,,,,,,,,,,,,,,,,,,,,,,,,,,,,,,,,,,,,,,,,,,,001,6,2019_Jul_18_1712,viewing,3.1.2,60.211924674363345,
north.png,stims/wedding-2.1a.mp4,stims/wedding-2.1b.mp4,stims/wedding-2.2b.mp4,stims/wedding-2.3b.mp4,stims/wedding-2.4b.mp4,stims/wedding-2.5.mp4,stimsday2details/painting2.png,stimsday2details/newpainting17.png,stimsday2details/couple2.png,stimsday2details/newperson31.png,stimsday2details/new31.png,stimsday2details/gift2.png,stimsday2details/cn2.png,stimsday2details/n2.png,stimsday2details/t2.png,stimsday2details/ct2.png,0,6,6,6,,,,,,,,,,,,,0,0,0,0,,,,,,,,,,,,,,,,,,,,,,,,,,,,,,,None,None,None,None,None,None,None,None,None,None,None,None,None,None,None,None,None,None,None,,None,None,None,,None,None,,,,,,,,,,,,,,,,,,,,,,,,,,,,,,,,,,,,,,,,,,,,,,,,,,,001,6,2019_Jul_18_1712,viewing,3.1.2,60.211924674363345,
north.png,stims/wedding-2.1a.mp4,stims/wedding-2.1b.mp4,stims/wedding-2.2b.mp4,stims/wedding-2.3b.mp4,stims/wedding-2.4b.mp4,stims/wedding-2.5.mp4,stimsday2details/painting2.png,stimsday2details/newpainting17.png,stimsday2details/couple2.png,stimsday2details/newperson31.png,stimsday2details/new31.png,stimsday2details/gift2.png,stimsday2details/cn2.png,stimsday2details/n2.png,stimsday2details/t2.png,stimsday2details/ct2.png,0,6,6,6,,,,,,,,,,,,,,,,,,,,,,,,,,,,,,,,,,,,,,,,,,,,,,,,,,,,,,,,,,,,,,,,,,,,,,,,,3.127404488623142e-05,None,2,1.0237205909797922,1021.261156637047,None,1021.261156637047,None,1021.261156637047,None,1023.244450031023,None,1,0.6186457859585062,1023.244450031023,None,1023.244450031023,None,1025.244187201024,None,1025.244187201024,None,1,0.8520524890045635,1025.244187201024,None,1,1.230329376005102,1027.2490763150272,None,1027.2490763150272,None,1027.2490763150272,None,1029.2481312990421,None,1029.2481312990421,None,2,0.8022895319736563,1029.2481312990421,None,1031.2491920190514,None,1031.2491920190514,None,1,1.8136188500211574,1031.2491920190514,None,001,6,2019_Jul_18_1712,viewing,3.1.2,60.211924674363345,
south.png,stims/wedding-29.1a.mp4,stims/wedding-29.1b.mp4,stims/wedding-29.2a.mp4,stims/wedding-29.3b.mp4,stims/wedding-29.4a.mp4,stims/wedding-29.5.mp4,stimsday2details/newegg15.png,stimsday2details/egg29.png,stimsday2details/couple29.png,stimsday2details/newperson32.png,stimsday2details/new32.png,stimsday2details/gift29.png,stimsday2details/cn29.png,stimsday2details/n29.png,stimsday2details/ct29.png,stimsday2details/t29.png,0,7,7,7,0,0,0,0,,,,,,,,,,,,,,,,,,,,,,,,,1033.2443261480075,None,,,,,,,,,,,,,,,,,,,,,,,,,,,,,,,,,,,,,,,,,,,,,,,,,,,,,,,,,,,,,,,,,,,,,,,,,,,,,,,,,,,,,,,,,,,,,001,6,2019_Jul_18_1712,viewing,3.1.2,60.211924674363345,
south.png,stims/wedding-29.1a.mp4,stims/wedding-29.1b.mp4,stims/wedding-29.2a.mp4,stims/wedding-29.3b.mp4,stims/wedding-29.4a.mp4,stims/wedding-29.5.mp4,stimsday2details/newegg15.png,stimsday2details/egg29.png,stimsday2details/couple29.png,stimsday2details/newperson32.png,stimsday2details/new32.png,stimsday2details/gift29.png,stimsday2details/cn29.png,stimsday2details/n29.png,stimsday2details/ct29.png,stimsday2details/t29.png,0,7,7,7,,,,,0,0,0,0,,,,,,,,,,,,,,,,,,,,,,,None,None,,,,,,,,,,,,,,,,,,,,,,,,,,,,,,,,,,,,,,,,,,,,,,,,,,,,,,,,,,,,,,,,,,,,,,,,,,,,,,,,,,,,,,,,,,,001,6,2019_Jul_18_1712,viewing,3.1.2,60.211924674363345,
south.png,stims/wedding-29.1a.mp4,stims/wedding-29.1b.mp4,stims/wedding-29.2a.mp4,stims/wedding-29.3b.mp4,stims/wedding-29.4a.mp4,stims/wedding-29.5.mp4,stimsday2details/newegg15.png,stimsday2details/egg29.png,stimsday2details/couple29.png,stimsday2details/newperson32.png,stimsday2details/new32.png,stimsday2details/gift29.png,stimsday2details/cn29.png,stimsday2details/n29.png,stimsday2details/ct29.png,stimsday2details/t29.png,0,7,7,7,,,,,,,,,0,0,0,0,,,,,,,,,,,,,,,,,,,,,2.9560183790163137,None,1043.561464642,1068.6102854990168,1068.6272374560358,None,1077.6282906710403,None,1094.6114653550321,1117.6146274839994,1117.6274060270516,None,1141.6274777430226,None,,,,,,,,,,,,,,,,,,,,,,,,,,,,,,,,,,,,,,,,,,,,,,,,,,,,,,,,,,,,,,,,,,,,,,,,,,,,,001,6,2019_Jul_18_1712,viewing,3.1.2,60.211924674363345,
south.png,stims/wedding-29.1a.mp4,stims/wedding-29.1b.mp4,stims/wedding-29.2a.mp4,stims/wedding-29.3b.mp4,stims/wedding-29.4a.mp4,stims/wedding-29.5.mp4,stimsday2details/newegg15.png,stimsday2details/egg29.png,stimsday2details/couple29.png,stimsday2details/newperson32.png,stimsday2details/new32.png,stimsday2details/gift29.png,stimsday2details/cn29.png,stimsday2details/n29.png,stimsday2details/ct29.png,stimsday2details/t29.png,0,7,7,7,,,,,,,,,,,,,0,0,0,0,,,,,,,,,,,,,,,,,,,,,,,,,,,,,,,None,None,None,None,None,None,None,None,None,None,None,None,None,None,None,None,None,None,None,,None,None,None,,None,None,,,,,,,,,,,,,,,,,,,,,,,,,,,,,,,,,,,,,,,,,,,,,,,,,,,001,6,2019_Jul_18_1712,viewing,3.1.2,60.211924674363345,
south.png,stims/wedding-29.1a.mp4,stims/wedding-29.1b.mp4,stims/wedding-29.2a.mp4,stims/wedding-29.3b.mp4,stims/wedding-29.4a.mp4,stims/wedding-29.5.mp4,stimsday2details/newegg15.png,stimsday2details/egg29.png,stimsday2details/couple29.png,stimsday2details/newperson32.png,stimsday2details/new32.png,stimsday2details/gift29.png,stimsday2details/cn29.png,stimsday2details/n29.png,stimsday2details/ct29.png,stimsday2details/t29.png,0,7,7,7,,,,,,,,,,,,,,,,,,,,,,,,,,,,,,,,,,,,,,,,,,,,,,,,,,,,,,,,,,,,,,,,,,,,,,,,,4.459300544112921e-05,None,2,0.9696442039567046,1165.2259490590077,None,1165.2259490590077,None,1165.2259490590077,None,1167.2260289060068,None,2,0.7683004430145957,1167.2260289060068,None,1167.2260289060068,None,1169.2313529990497,None,1169.2313529990497,None,1,0.5388782030204311,1169.2313529990497,None,2,1.1017859160201624,1171.2312547210022,None,1171.2312547210022,None,1171.2312547210022,None,1173.230682037014,None,1173.230682037014,None,2,0.784750766993966,1173.230682037014,None,1175.2262814970454,None,1175.2262814970454,None,1,1.8691756799817085,1175.2262814970454,None,001,6,2019_Jul_18_1712,viewing,3.1.2,60.211924674363345,
south.png,stims/wedding-17.1a.mp4,stims/wedding-17.1b.mp4,stims/wedding-17.2b.mp4,stims/wedding-17.3a.mp4,stims/wedding-17.4b.mp4,stims/wedding-17.5.mp4,stimsday2details/newpainting18.png,stimsday2details/painting17.png,stimsday2details/couple17.png,stimsday2details/newperson33.png,stimsday2details/gift17.png,stimsday2details/new33.png,stimsday2details/cn17.png,stimsday2details/n17.png,stimsday2details/ct17.png,stimsday2details/t17.png,0,8,8,8,0,0,0,0,,,,,,,,,,,,,,,,,,,,,,,,,1177.2303722040378,None,,,,,,,,,,,,,,,,,,,,,,,,,,,,,,,,,,,,,,,,,,,,,,,,,,,,,,,,,,,,,,,,,,,,,,,,,,,,,,,,,,,,,,,,,,,,,001,6,2019_Jul_18_1712,viewing,3.1.2,60.211924674363345,
south.png,stims/wedding-17.1a.mp4,stims/wedding-17.1b.mp4,stims/wedding-17.2b.mp4,stims/wedding-17.3a.mp4,stims/wedding-17.4b.mp4,stims/wedding-17.5.mp4,stimsday2details/newpainting18.png,stimsday2details/painting17.png,stimsday2details/couple17.png,stimsday2details/newperson33.png,stimsday2details/gift17.png,stimsday2details/new33.png,stimsday2details/cn17.png,stimsday2details/n17.png,stimsday2details/ct17.png,stimsday2details/t17.png,0,8,8,8,,,,,0,0,0,0,,,,,,,,,,,,,,,,,,,,,,,None,None,,,,,,,,,,,,,,,,,,,,,,,,,,,,,,,,,,,,,,,,,,,,,,,,,,,,,,,,,,,,,,,,,,,,,,,,,,,,,,,,,,,,,,,,,,,001,6,2019_Jul_18_1712,viewing,3.1.2,60.211924674363345,
south.png,stims/wedding-17.1a.mp4,stims/wedding-17.1b.mp4,stims/wedding-17.2b.mp4,stims/wedding-17.3a.mp4,stims/wedding-17.4b.mp4,stims/wedding-17.5.mp4,stimsday2details/newpainting18.png,stimsday2details/painting17.png,stimsday2details/couple17.png,stimsday2details/newperson33.png,stimsday2details/gift17.png,stimsday2details/new33.png,stimsday2details/cn17.png,stimsday2details/n17.png,stimsday2details/ct17.png,stimsday2details/t17.png,0,8,8,8,,,,,,,,,0,0,0,0,,,,,,,,,,,,,,,,,,,,,2.8888588119880296,None,1187.5256077400409,None,1212.6432977770455,None,1221.6423141140258,None,1238.629693281022,None,1261.642670382047,None,1285.6410156220081,None,,,,,,,,,,,,,,,,,,,,,,,,,,,,,,,,,,,,,,,,,,,,,,,,,,,,,,,,,,,,,,,,,,,,,,,,,,,,,001,6,2019_Jul_18_1712,viewing,3.1.2,60.211924674363345,
south.png,stims/wedding-17.1a.mp4,stims/wedding-17.1b.mp4,stims/wedding-17.2b.mp4,stims/wedding-17.3a.mp4,stims/wedding-17.4b.mp4,stims/wedding-17.5.mp4,stimsday2details/newpainting18.png,stimsday2details/painting17.png,stimsday2details/couple17.png,stimsday2details/newperson33.png,stimsday2details/gift17.png,stimsday2details/new33.png,stimsday2details/cn17.png,stimsday2details/n17.png,stimsday2details/ct17.png,stimsday2details/t17.png,0,8,8,8,,,,,,,,,,,,,0,0,0,0,,,,,,,,,,,,,,,,,,,,,,,,,,,,,,,None,None,None,None,None,None,None,None,None,None,None,None,None,None,None,None,None,None,None,,None,None,None,,None,None,,,,,,,,,,,,,,,,,,,,,,,,,,,,,,,,,,,,,,,,,,,,,,,,,,,001,6,2019_Jul_18_1712,viewing,3.1.2,60.211924674363345,
south.png,stims/wedding-17.1a.mp4,stims/wedding-17.1b.mp4,stims/wedding-17.2b.mp4,stims/wedding-17.3a.mp4,stims/wedding-17.4b.mp4,stims/wedding-17.5.mp4,stimsday2details/newpainting18.png,stimsday2details/painting17.png,stimsday2details/couple17.png,stimsday2details/newperson33.png,stimsday2details/gift17.png,stimsday2details/new33.png,stimsday2details/cn17.png,stimsday2details/n17.png,stimsday2details/ct17.png,stimsday2details/t17.png,0,8,8,8,,,,,,,,,,,,,,,,,,,,,,,,,,,,,,,,,,,,,,,,,,,,,,,,,,,,,,,,,,,,,,,,,,,,,,,,,4.4245971366763115e-05,None,2,1.0021402619895525,1309.491271068051,None,1309.491271068051,None,1309.491271068051,None,1311.474998587044,None,2,0.751685599971097,1311.474998587044,None,1311.474998587044,None,1313.475155977998,None,1313.475155977998,None,1,0.7922562520252541,1313.475155977998,None,2,1.3855072949663736,1315.4741771080298,None,1315.4741771080298,None,1315.4741771080298,None,1317.4752324010478,None,1317.4752324010478,None,1,1.1677290230290964,1317.4752324010478,None,1319.47966390301,None,1319.47966390301,None,2,1.4140590819879435,1319.47966390301,None,001,6,2019_Jul_18_1712,viewing,3.1.2,60.211924674363345,
north.png,stims/wedding-28.1a.mp4,stims/wedding-28.1b.mp4,stims/wedding-28.2a.mp4,stims/wedding-28.3a.mp4,stims/wedding-28.4a.mp4,stims/wedding-28.5.mp4,stimsday2details/newegg16.png,stimsday2details/egg28.png,stimsday2details/newperson34.png,stimsday2details/couple28.png,stimsday2details/new34.png,stimsday2details/gift28.png,stimsday2details/n28.png,stimsday2details/cn28.png,stimsday2details/t28.png,stimsday2details/ct28.png,0,9,9,9,0,0,0,0,,,,,,,,,,,,,,,,,,,,,,,,,None,None,,,,,,,,,,,,,,,,,,,,,,,,,,,,,,,,,,,,,,,,,,,,,,,,,,,,,,,,,,,,,,,,,,,,,,,,,,,,,,,,,,,,,,,,,,,,,001,6,2019_Jul_18_1712,viewing,3.1.2,60.211924674363345,
north.png,stims/wedding-28.1a.mp4,stims/wedding-28.1b.mp4,stims/wedding-28.2a.mp4,stims/wedding-28.3a.mp4,stims/wedding-28.4a.mp4,stims/wedding-28.5.mp4,stimsday2details/newegg16.png,stimsday2details/egg28.png,stimsday2details/newperson34.png,stimsday2details/couple28.png,stimsday2details/new34.png,stimsday2details/gift28.png,stimsday2details/n28.png,stimsday2details/cn28.png,stimsday2details/t28.png,stimsday2details/ct28.png,0,9,9,9,,,,,0,0,0,0,,,,,,,,,,,,,,,,,,,,,,,1321.8580482660327,None,,,,,,,,,,,,,,,,,,,,,,,,,,,,,,,,,,,,,,,,,,,,,,,,,,,,,,,,,,,,,,,,,,,,,,,,,,,,,,,,,,,,,,,,,,,001,6,2019_Jul_18_1712,viewing,3.1.2,60.211924674363345,
north.png,stims/wedding-28.1a.mp4,stims/wedding-28.1b.mp4,stims/wedding-28.2a.mp4,stims/wedding-28.3a.mp4,stims/wedding-28.4a.mp4,stims/wedding-28.5.mp4,stimsday2details/newegg16.png,stimsday2details/egg28.png,stimsday2details/newperson34.png,stimsday2details/couple28.png,stimsday2details/new34.png,stimsday2details/gift28.png,stimsday2details/n28.png,stimsday2details/cn28.png,stimsday2details/t28.png,stimsday2details/ct28.png,0,9,9,9,,,,,,,,,0,0,0,0,,,,,,,,,,,,,,,,,,,,,2.8875756610068493,None,1331.9739440430421,1357.0913775460212,1357.0913775460212,None,1366.091063224012,1383.0758394050063,1383.093076775025,1406.07391065103,1406.0904927540105,1430.0902462140075,1430.0902462140075,None,,,,,,,,,,,,,,,,,,,,,,,,,,,,,,,,,,,,,,,,,,,,,,,,,,,,,,,,,,,,,,,,,,,,,,,,,,,,,001,6,2019_Jul_18_1712,viewing,3.1.2,60.211924674363345,
north.png,stims/wedding-28.1a.mp4,stims/wedding-28.1b.mp4,stims/wedding-28.2a.mp4,stims/wedding-28.3a.mp4,stims/wedding-28.4a.mp4,stims/wedding-28.5.mp4,stimsday2details/newegg16.png,stimsday2details/egg28.png,stimsday2details/newperson34.png,stimsday2details/couple28.png,stimsday2details/new34.png,stimsday2details/gift28.png,stimsday2details/n28.png,stimsday2details/cn28.png,stimsday2details/t28.png,stimsday2details/ct28.png,0,9,9,9,,,,,,,,,,,,,0,0,0,0,,,,,,,,,,,,,,,,,,,,,,,,,,,,,,,None,None,None,None,None,None,None,None,None,None,None,None,None,None,None,None,None,None,None,,None,None,None,,None,None,,,,,,,,,,,,,,,,,,,,,,,,,,,,,,,,,,,,,,,,,,,,,,,,,,,001,6,2019_Jul_18_1712,viewing,3.1.2,60.211924674363345,
north.png,stims/wedding-28.1a.mp4,stims/wedding-28.1b.mp4,stims/wedding-28.2a.mp4,stims/wedding-28.3a.mp4,stims/wedding-28.4a.mp4,stims/wedding-28.5.mp4,stimsday2details/newegg16.png,stimsday2details/egg28.png,stimsday2details/newperson34.png,stimsday2details/couple28.png,stimsday2details/new34.png,stimsday2details/gift28.png,stimsday2details/n28.png,stimsday2details/cn28.png,stimsday2details/t28.png,stimsday2details/ct28.png,0,9,9,9,,,,,,,,,,,,,,,,,,,,,,,,,,,,,,,,,,,,,,,,,,,,,,,,,,,,,,,,,,,,,,,,,,,,,,,,,4.180701216682792e-05,None,1,1.1510135119897313,1454.5397545100423,None,1454.5397545100423,None,1454.5397545100423,None,1456.5234817740275,None,2,0.9039702989975922,1456.5234817740275,None,1456.5234817740275,None,1458.5234589740285,None,1458.5234589740285,None,2,0.8218794369604439,1458.5234589740285,None,1,0.8514932029647753,1460.5229361900128,None,1460.5229361900128,None,1460.5229361900128,None,1462.523183081008,None,1462.523183081008,None,2,0.8517303279950283,1462.523183081008,None,1464.5221235830104,None,1464.5221235830104,None,1,1.0237692339578643,1464.5221235830104,None,001,6,2019_Jul_18_1712,viewing,3.1.2,60.211924674363345,
north.png,stims/wedding-23.1a.mp4,stims/wedding-23.1b.mp4,stims/wedding-23.2a.mp4,stims/wedding-23.3a.mp4,stims/wedding-23.4a.mp4,stims/wedding-23.5.mp4,stimsday2details/newegg17.png,stimsday2details/egg23.png,stimsday2details/couple23.png,stimsday2details/newperson35.png,stimsday2details/gift23.png,stimsday2details/new35.png,stimsday2details/n23.png,stimsday2details/cn23.png,stimsday2details/t23.png,stimsday2details/ct23.png,0,10,10,10,0,0,0,0,,,,,,,,,,,,,,,,,,,,,,,,,None,None,,,,,,,,,,,,,,,,,,,,,,,,,,,,,,,,,,,,,,,,,,,,,,,,,,,,,,,,,,,,,,,,,,,,,,,,,,,,,,,,,,,,,,,,,,,,,001,6,2019_Jul_18_1712,viewing,3.1.2,60.211924674363345,
north.png,stims/wedding-23.1a.mp4,stims/wedding-23.1b.mp4,stims/wedding-23.2a.mp4,stims/wedding-23.3a.mp4,stims/wedding-23.4a.mp4,stims/wedding-23.5.mp4,stimsday2details/newegg17.png,stimsday2details/egg23.png,stimsday2details/couple23.png,stimsday2details/newperson35.png,stimsday2details/gift23.png,stimsday2details/new35.png,stimsday2details/n23.png,stimsday2details/cn23.png,stimsday2details/t23.png,stimsday2details/ct23.png,0,10,10,10,,,,,0,0,0,0,,,,,,,,,,,,,,,,,,,,,,,1466.7610786930309,None,,,,,,,,,,,,,,,,,,,,,,,,,,,,,,,,,,,,,,,,,,,,,,,,,,,,,,,,,,,,,,,,,,,,,,,,,,,,,,,,,,,,,,,,,,,001,6,2019_Jul_18_1712,viewing,3.1.2,60.211924674363345,
north.png,stims/wedding-23.1a.mp4,stims/wedding-23.1b.mp4,stims/wedding-23.2a.mp4,stims/wedding-23.3a.mp4,stims/wedding-23.4a.mp4,stims/wedding-23.5.mp4,stimsday2details/newegg17.png,stimsday2details/egg23.png,stimsday2details/couple23.png,stimsday2details/newperson35.png,stimsday2details/gift23.png,stimsday2details/new35.png,stimsday2details/n23.png,stimsday2details/cn23.png,stimsday2details/t23.png,stimsday2details/ct23.png,0,10,10,10,,,,,,,,,0,0,0,0,,,,,,,,,,,,,,,,,,,,,2.9766376860206947,None,1476.9886395140202,1502.0095481240423,1502.0226836250513,None,1511.0217331730528,1528.005859921046,1528.0219635160174,1551.0043001330341,1551.0212972690351,1575.0050697690458,1575.021220493014,None,,,,,,,,,,,,,,,,,,,,,,,,,,,,,,,,,,,,,,,,,,,,,,,,,,,,,,,,,,,,,,,,,,,,,,,,,,,,,001,6,2019_Jul_18_1712,viewing,3.1.2,60.211924674363345,
north.png,stims/wedding-23.1a.mp4,stims/wedding-23.1b.mp4,stims/wedding-23.2a.mp4,stims/wedding-23.3a.mp4,stims/wedding-23.4a.mp4,stims/wedding-23.5.mp4,stimsday2details/newegg17.png,stimsday2details/egg23.png,stimsday2details/couple23.png,stimsday2details/newperson35.png,stimsday2details/gift23.png,stimsday2details/new35.png,stimsday2details/n23.png,stimsday2details/cn23.png,stimsday2details/t23.png,stimsday2details/ct23.png,0,10,10,10,,,,,,,,,,,,,0,0,0,0,,,,,,,,,,,,,,,,,,,,,,,,,,,,,,,None,None,None,None,None,None,None,None,None,None,None,None,None,None,None,None,None,None,None,,None,None,None,,None,None,,,,,,,,,,,,,,,,,,,,,,,,,,,,,,,,,,,,,,,,,,,,,,,,,,,001,6,2019_Jul_18_1712,viewing,3.1.2,60.211924674363345,
north.png,stims/wedding-23.1a.mp4,stims/wedding-23.1b.mp4,stims/wedding-23.2a.mp4,stims/wedding-23.3a.mp4,stims/wedding-23.4a.mp4,stims/wedding-23.5.mp4,stimsday2details/newegg17.png,stimsday2details/egg23.png,stimsday2details/couple23.png,stimsday2details/newperson35.png,stimsday2details/gift23.png,stimsday2details/new35.png,stimsday2details/n23.png,stimsday2details/cn23.png,stimsday2details/t23.png,stimsday2details/ct23.png,0,10,10,10,,,,,,,,,,,,,,,,,,,,,,,,,,,,,,,,,,,,,,,,,,,,,,,,,,,,,,,,,,,,,,,,,,,,,,,,,2.7000962290912867e-05,None,1,0.9928906339919195,1599.6397347309976,None,1599.6397347309976,None,1599.6397347309976,None,1601.6467000929988,None,2,0.7645258639822714,1601.6467000929988,None,1601.6467000929988,None,1603.6429857420153,None,1603.6429857420153,None,1,0.7015128739876673,1603.6429857420153,None,1,0.7310305769788101,1605.6415772699984,None,1605.6415772699984,None,1605.6415772699984,None,1607.637435808021,None,1607.637435808021,None,1,0.6731571760028601,1607.637435808021,None,1609.6380790010444,None,1609.6380790010444,None,1,1.624877240974456,1609.6380790010444,None,001,6,2019_Jul_18_1712,viewing,3.1.2,60.211924674363345,
south.png,stims/wedding-34.1a.mp4,stims/wedding-34.1b.mp4,stims/wedding-34.2a.mp4,stims/wedding-34.3b.mp4,stims/wedding-34.4a.mp4,stims/wedding-34.5.mp4,stimsday2details/newegg18.png,stimsday2details/egg34.png,stimsday2details/newperson36.png,stimsday2details/couple34.png,stimsday2details/new36.png,stimsday2details/gift34.png,stimsday2details/cn34.png,stimsday2details/n34.png,stimsday2details/t34.png,stimsday2details/ct34.png,0,11,11,11,0,0,0,0,,,,,,,,,,,,,,,,,,,,,,,,,1611.6369956849958,None,,,,,,,,,,,,,,,,,,,,,,,,,,,,,,,,,,,,,,,,,,,,,,,,,,,,,,,,,,,,,,,,,,,,,,,,,,,,,,,,,,,,,,,,,,,,,001,6,2019_Jul_18_1712,viewing,3.1.2,60.211924674363345,
south.png,stims/wedding-34.1a.mp4,stims/wedding-34.1b.mp4,stims/wedding-34.2a.mp4,stims/wedding-34.3b.mp4,stims/wedding-34.4a.mp4,stims/wedding-34.5.mp4,stimsday2details/newegg18.png,stimsday2details/egg34.png,stimsday2details/newperson36.png,stimsday2details/couple34.png,stimsday2details/new36.png,stimsday2details/gift34.png,stimsday2details/cn34.png,stimsday2details/n34.png,stimsday2details/t34.png,stimsday2details/ct34.png,0,11,11,11,,,,,0,0,0,0,,,,,,,,,,,,,,,,,,,,,,,None,None,,,,,,,,,,,,,,,,,,,,,,,,,,,,,,,,,,,,,,,,,,,,,,,,,,,,,,,,,,,,,,,,,,,,,,,,,,,,,,,,,,,,,,,,,,,001,6,2019_Jul_18_1712,viewing,3.1.2,60.211924674363345,
south.png,stims/wedding-34.1a.mp4,stims/wedding-34.1b.mp4,stims/wedding-34.2a.mp4,stims/wedding-34.3b.mp4,stims/wedding-34.4a.mp4,stims/wedding-34.5.mp4,stimsday2details/newegg18.png,stimsday2details/egg34.png,stimsday2details/newperson36.png,stimsday2details/couple34.png,stimsday2details/new36.png,stimsday2details/gift34.png,stimsday2details/cn34.png,stimsday2details/n34.png,stimsday2details/t34.png,stimsday2details/ct34.png,0,11,11,11,,,,,,,,,0,0,0,0,,,,,,,,,,,,,,,,,,,,,None,None,None,None,None,None,None,None,None,None,None,None,None,None,,,,,,,,,,,,,,,,,,,,,,,,,,,,,,,,,,,,,,,,,,,,,,,,,,,,,,,,,,,,,,,,,,,,,,,,,,,,,001,6,2019_Jul_18_1712,viewing,3.1.2,60.211924674363345,
south.png,stims/wedding-34.1a.mp4,stims/wedding-34.1b.mp4,stims/wedding-34.2a.mp4,stims/wedding-34.3b.mp4,stims/wedding-34.4a.mp4,stims/wedding-34.5.mp4,stimsday2details/newegg18.png,stimsday2details/egg34.png,stimsday2details/newperson36.png,stimsday2details/couple34.png,stimsday2details/new36.png,stimsday2details/gift34.png,stimsday2details/cn34.png,stimsday2details/n34.png,stimsday2details/t34.png,stimsday2details/ct34.png,0,11,11,11,,,,,,,,,,,,,0,0,0,0,,,,,,,,,,,,,,,,,,,,,,,,,,,,,,,3.0102949229767546,None,1625.5534680050332,1650.5367301170481,1650.5542200910277,None,1659.556652986037,None,1676.5586736139958,1680.5409119980177,1680.553946014028,1703.5408825430204,1703.5538354419987,1707.5357677350403,1707.5527482690522,1731.5361980750458,1731.5524031470413,None,['2'],[3.1056686209631152],1675.5553198039997,1680.5409119980177,"['2', '1', '1']","[2.3190264379954897, 3.239929942006711, 3.9692750989925116]",1702.5529879280366,1707.5357677350403,,,,,,,,,,,,,,,,,,,,,,,,,,,,,,,,,,,,,,,,,,,,,,,,,,,001,6,2019_Jul_18_1712,viewing,3.1.2,60.211924674363345,
south.png,stims/wedding-34.1a.mp4,stims/wedding-34.1b.mp4,stims/wedding-34.2a.mp4,stims/wedding-34.3b.mp4,stims/wedding-34.4a.mp4,stims/wedding-34.5.mp4,stimsday2details/newegg18.png,stimsday2details/egg34.png,stimsday2details/newperson36.png,stimsday2details/couple34.png,stimsday2details/new36.png,stimsday2details/gift34.png,stimsday2details/cn34.png,stimsday2details/n34.png,stimsday2details/t34.png,stimsday2details/ct34.png,0,11,11,11,,,,,,,,,,,,,,,,,,,,,,,,,,,,,,,,,,,,,,,,,,,,,,,,,,,,,,,,,,,,,,,,,,,,,,,,,3.9444013964384794e-05,None,2,1.3828565800213255,1752.1364074660232,None,1752.1364074660232,None,1752.1364074660232,None,1754.1187713710242,None,2,0.8064921760233119,1754.1187713710242,None,1754.1187713710242,None,1756.1186314510414,None,1756.1186314510414,None,2,0.819252752000466,1756.1186314510414,None,1,0.7530158850131556,1758.1185471580247,None,1758.1185471580247,None,1758.1185471580247,None,1760.119386653998,None,1760.119386653998,None,2,0.7219553989707492,1760.119386653998,None,1762.1187601350248,None,1762.1187601350248,None,2,1.5693376569543034,1762.1187601350248,None,001,6,2019_Jul_18_1712,viewing,3.1.2,60.211924674363345,
