northOrSouth,stimFile1a,stimFile1b,stimFile2,stimFile3,stimFile4,stimFile5,Qeggpainting1,Qeggpainting2,Qcharacter1,Qcharacter2,Qgift1,Qgift2,Qname1,Qname2,Qtheme1,Qtheme2,trials.thisRepN,trials.thisTrialN,trials.thisN,trials.thisIndex,South.thisRepN,South.thisTrialN,South.thisN,South.thisIndex,North.thisRepN,North.thisTrialN,North.thisN,North.thisIndex,noQtrials.thisRepN,noQtrials.thisTrialN,noQtrials.thisN,noQtrials.thisIndex,Qtrials.thisRepN,Qtrials.thisTrialN,Qtrials.thisN,Qtrials.thisIndex,text.started,text.stopped,prep_trigger.keys,prep_trigger.rt,prep_trigger.started,prep_trigger.stopped,waiting.started,waiting.stopped,trigger.keys,trigger.rt,trigger.started,trigger.stopped,southCueImage.started,southCueImage.stopped,northCueImage.started,northCueImage.stopped,trialNoQs.started,trialNoQs.stopped,vid1a.started,vid1a.stopped,vid1b.started,vid1b.stopped,vid2.started,vid2.stopped,vid3.started,vid3.stopped,vid4.started,vid4.stopped,vid5.started,vid5.stopped,ISI2.started,ISI2.stopped,vid1a_q.started,vid1a_q.stopped,vid1b_q.started,vid1b_q.stopped,vid2_q.started,vid2_q.stopped,l2q.started,l2q.stopped,vid3_q.started,vid3_q.stopped,l3q.started,l3q.stopped,vid4_q.started,vid4_q.stopped,vid5_q.started,vid5_q.stopped,key_resp_2.keys,key_resp_2.rt,key_resp_2.started,key_resp_2.stopped,key_resp_3.keys,key_resp_3.rt,key_resp_3.started,key_resp_3.stopped,ISI7.started,ISI7.stopped,nameQresp.keys,nameQresp.rt,nameQresp.started,nameQresp.stopped,nameQ1.started,nameQ1.stopped,nameQ2.started,nameQ2.stopped,eggPainting1.started,eggPainting1.stopped,eggPaintingQresp.keys,eggPaintingQresp.rt,eggPaintingQresp.started,eggPaintingQresp.stopped,eggPainting2.started,eggPainting2.stopped,character1.started,character1.stopped,character2.started,character2.stopped,Qcharacter.keys,Qcharacter.rt,Qcharacter.started,Qcharacter.stopped,themeQresp.keys,themeQresp.rt,themeQresp.started,themeQresp.stopped,themeQ1.started,themeQ1.stopped,themeQ2.started,themeQ2.stopped,gift1.started,gift1.stopped,gift2.started,gift2.stopped,giftQresp.keys,giftQresp.rt,giftQresp.started,giftQresp.stopped,northorsouth1.started,northorsouth1.stopped,northorsouth2.started,northorsouth2.stopped,northOrSouthQ.keys,northOrSouthQ.rt,northOrSouthQ.started,northOrSouthQ.stopped,session,participant,date,expName,psychopyVersion,frameRate,
,,,,,,,,,,,,,,,,,,,,,,,,,,,,,,,,,,,,,5.221088019199669,None,g,0.5699966680258512,5.221088019199669,None,,,,,,,,,,,,,,,,,,,,,,,,,,,,,,,,,,,,,,,,,,,,,,,,,,,,,,,,,,,,,,,,,,,,,,,,,,,,,,,,,,,,,,,,,,,,,,,,,,,,,001,12,2019_Aug_27_1539,viewing,3.1.2,60.000048503318894,
,,,,,,,,,,,,,,,,,,,,,,,,,,,,,,,,,,,,,,,,,,,5.80349869094789,None,equal,20.335472282022238,5.80349869094789,None,,,,,,,,,,,,,,,,,,,,,,,,,,,,,,,,,,,,,,,,,,,,,,,,,,,,,,,,,,,,,,,,,,,,,,,,,,,,,,,,,,,,,,,,,,,,,,,001,12,2019_Aug_27_1539,viewing,3.1.2,60.000048503318894,
south.png,stims/wedding-34.1a.mp4,stims/wedding-34.1b.mp4,stims/wedding-34.2a.mp4,stims/wedding-34.3b.mp4,stims/wedding-34.4a.mp4,stims/wedding-34.5.mp4,stimsday2details/newegg13.png,stimsday2details/egg34.png,stimsday2details/couple34.png,stimsday2details/newperson25.png,stimsday2details/gift34.png,stimsday2details/new25.png,stimsday2details/n34.png,stimsday2details/cn34.png,stimsday2details/t34.png,stimsday2details/ct34.png,0,0,0,0,0,0,0,0,,,,,,,,,,,,,,,,,,,,,,,,,26.169936127960682,None,,,,,,,,,,,,,,,,,,,,,,,,,,,,,,,,,,,,,,,,,,,,,,,,,,,,,,,,,,,,,,,,,,,,,,,,,,,,,,,,,,,,,,,,,,,,,001,12,2019_Aug_27_1539,viewing,3.1.2,60.000048503318894,
south.png,stims/wedding-34.1a.mp4,stims/wedding-34.1b.mp4,stims/wedding-34.2a.mp4,stims/wedding-34.3b.mp4,stims/wedding-34.4a.mp4,stims/wedding-34.5.mp4,stimsday2details/newegg13.png,stimsday2details/egg34.png,stimsday2details/couple34.png,stimsday2details/newperson25.png,stimsday2details/gift34.png,stimsday2details/new25.png,stimsday2details/n34.png,stimsday2details/cn34.png,stimsday2details/t34.png,stimsday2details/ct34.png,0,0,0,0,,,,,0,0,0,0,,,,,,,,,,,,,,,,,,,,,,,None,None,,,,,,,,,,,,,,,,,,,,,,,,,,,,,,,,,,,,,,,,,,,,,,,,,,,,,,,,,,,,,,,,,,,,,,,,,,,,,,,,,,,,,,,,,,,001,12,2019_Aug_27_1539,viewing,3.1.2,60.000048503318894,
south.png,stims/wedding-34.1a.mp4,stims/wedding-34.1b.mp4,stims/wedding-34.2a.mp4,stims/wedding-34.3b.mp4,stims/wedding-34.4a.mp4,stims/wedding-34.5.mp4,stimsday2details/newegg13.png,stimsday2details/egg34.png,stimsday2details/couple34.png,stimsday2details/newperson25.png,stimsday2details/gift34.png,stimsday2details/new25.png,stimsday2details/n34.png,stimsday2details/cn34.png,stimsday2details/t34.png,stimsday2details/ct34.png,0,0,0,0,,,,,,,,,0,0,0,0,,,,,,,,,,,,,,,,,,,,,None,None,None,None,None,None,None,None,None,None,None,None,None,None,,,,,,,,,,,,,,,,,,,,,,,,,,,,,,,,,,,,,,,,,,,,,,,,,,,,,,,,,,,,,,,,,,,,,,,,,,,,,001,12,2019_Aug_27_1539,viewing,3.1.2,60.000048503318894,
south.png,stims/wedding-34.1a.mp4,stims/wedding-34.1b.mp4,stims/wedding-34.2a.mp4,stims/wedding-34.3b.mp4,stims/wedding-34.4a.mp4,stims/wedding-34.5.mp4,stimsday2details/newegg13.png,stimsday2details/egg34.png,stimsday2details/couple34.png,stimsday2details/newperson25.png,stimsday2details/gift34.png,stimsday2details/new25.png,stimsday2details/n34.png,stimsday2details/cn34.png,stimsday2details/t34.png,stimsday2details/ct34.png,0,0,0,0,,,,,,,,,,,,,0,0,0,0,,,,,,,,,,,,,,,,,,,,,,,,,,,,,,,2.947369026951492,None,39.453953615389764,64.50277109537274,64.51942213997245,73.5026879501529,73.51934222597629,None,90.51911605894566,94.50241675414145,94.51900048507378,117.50206321896985,117.51879859203473,121.50208912603557,121.51867094123736,145.50168912811205,145.518379655201,None,['2'],[2.5335325128398836],89.51915961829945,94.50241675414145,['1'],[2.335713927168399],116.51877399394289,121.50208912603557,,,,,,,,,,,,,,,,,,,,,,,,,,,,,,,,,,,,,,,,,,,,,,,,,,,001,12,2019_Aug_27_1539,viewing,3.1.2,60.000048503318894,
south.png,stims/wedding-34.1a.mp4,stims/wedding-34.1b.mp4,stims/wedding-34.2a.mp4,stims/wedding-34.3b.mp4,stims/wedding-34.4a.mp4,stims/wedding-34.5.mp4,stimsday2details/newegg13.png,stimsday2details/egg34.png,stimsday2details/couple34.png,stimsday2details/newperson25.png,stimsday2details/gift34.png,stimsday2details/new25.png,stimsday2details/n34.png,stimsday2details/cn34.png,stimsday2details/t34.png,stimsday2details/ct34.png,0,0,0,0,,,,,,,,,,,,,,,,,,,,,,,,,,,,,,,,,,,,,,,,,,,,,,,,,,,,,,,,,,,,,,,,,,,,,,,,,1.9741244614124298e-05,None,1,0.8856919538229704,165.85145940911025,None,165.85145940911025,None,165.85145940911025,None,167.834795483388,None,2,0.8169987658038735,167.834795483388,None,167.834795483388,None,169.83471750514582,None,169.83471750514582,None,1,0.6691200640052557,169.83471750514582,None,1,0.8690053331665695,171.83478182693943,None,171.83478182693943,None,171.83478182693943,None,173.83475054707378,None,173.83475054707378,None,1,0.6189125557430089,173.83475054707378,None,175.83471445413306,None,175.83471445413306,None,2,0.5189977781847119,175.83471445413306,None,001,12,2019_Aug_27_1539,viewing,3.1.2,60.000048503318894,
north.png,stims/wedding-17.1a.mp4,stims/wedding-17.1b.mp4,stims/wedding-17.2a.mp4,stims/wedding-17.3a.mp4,stims/wedding-17.4a.mp4,stims/wedding-17.5.mp4,stimsday2details/newegg14.png,stimsday2details/egg17.png,stimsday2details/newperson26.png,stimsday2details/couple17.png,stimsday2details/new26.png,stimsday2details/gift17.png,stimsday2details/n17.png,stimsday2details/cn17.png,stimsday2details/t17.png,stimsday2details/ct17.png,0,1,1,1,0,0,0,0,,,,,,,,,,,,,,,,,,,,,,,,,None,None,,,,,,,,,,,,,,,,,,,,,,,,,,,,,,,,,,,,,,,,,,,,,,,,,,,,,,,,,,,,,,,,,,,,,,,,,,,,,,,,,,,,,,,,,,,,,001,12,2019_Aug_27_1539,viewing,3.1.2,60.000048503318894,
north.png,stims/wedding-17.1a.mp4,stims/wedding-17.1b.mp4,stims/wedding-17.2a.mp4,stims/wedding-17.3a.mp4,stims/wedding-17.4a.mp4,stims/wedding-17.5.mp4,stimsday2details/newegg14.png,stimsday2details/egg17.png,stimsday2details/newperson26.png,stimsday2details/couple17.png,stimsday2details/new26.png,stimsday2details/gift17.png,stimsday2details/n17.png,stimsday2details/cn17.png,stimsday2details/t17.png,stimsday2details/ct17.png,0,1,1,1,,,,,0,0,0,0,,,,,,,,,,,,,,,,,,,,,,,177.88466400001198,None,,,,,,,,,,,,,,,,,,,,,,,,,,,,,,,,,,,,,,,,,,,,,,,,,,,,,,,,,,,,,,,,,,,,,,,,,,,,,,,,,,,,,,,,,,,001,12,2019_Aug_27_1539,viewing,3.1.2,60.000048503318894,
north.png,stims/wedding-17.1a.mp4,stims/wedding-17.1b.mp4,stims/wedding-17.2a.mp4,stims/wedding-17.3a.mp4,stims/wedding-17.4a.mp4,stims/wedding-17.5.mp4,stimsday2details/newegg14.png,stimsday2details/egg17.png,stimsday2details/newperson26.png,stimsday2details/couple17.png,stimsday2details/new26.png,stimsday2details/gift17.png,stimsday2details/n17.png,stimsday2details/cn17.png,stimsday2details/t17.png,stimsday2details/ct17.png,0,1,1,1,,,,,,,,,0,0,0,0,,,,,,,,,,,,,,,,,,,,,3.1102388370782137,None,188.05120887234807,None,212.95092025399208,None,221.95073521416634,238.93392794393003,238.95056238025427,None,261.95029067015275,None,285.9499386032112,None,,,,,,,,,,,,,,,,,,,,,,,,,,,,,,,,,,,,,,,,,,,,,,,,,,,,,,,,,,,,,,,,,,,,,,,,,,,,,001,12,2019_Aug_27_1539,viewing,3.1.2,60.000048503318894,
north.png,stims/wedding-17.1a.mp4,stims/wedding-17.1b.mp4,stims/wedding-17.2a.mp4,stims/wedding-17.3a.mp4,stims/wedding-17.4a.mp4,stims/wedding-17.5.mp4,stimsday2details/newegg14.png,stimsday2details/egg17.png,stimsday2details/newperson26.png,stimsday2details/couple17.png,stimsday2details/new26.png,stimsday2details/gift17.png,stimsday2details/n17.png,stimsday2details/cn17.png,stimsday2details/t17.png,stimsday2details/ct17.png,0,1,1,1,,,,,,,,,,,,,0,0,0,0,,,,,,,,,,,,,,,,,,,,,,,,,,,,,,,None,None,None,None,None,None,None,None,None,None,None,None,None,None,None,None,None,None,None,,None,None,None,,None,None,,,,,,,,,,,,,,,,,,,,,,,,,,,,,,,,,,,,,,,,,,,,,,,,,,,001,12,2019_Aug_27_1539,viewing,3.1.2,60.000048503318894,
north.png,stims/wedding-17.1a.mp4,stims/wedding-17.1b.mp4,stims/wedding-17.2a.mp4,stims/wedding-17.3a.mp4,stims/wedding-17.4a.mp4,stims/wedding-17.5.mp4,stimsday2details/newegg14.png,stimsday2details/egg17.png,stimsday2details/newperson26.png,stimsday2details/couple17.png,stimsday2details/new26.png,stimsday2details/gift17.png,stimsday2details/n17.png,stimsday2details/cn17.png,stimsday2details/t17.png,stimsday2details/ct17.png,0,1,1,1,,,,,,,,,,,,,,,,,,,,,,,,,,,,,,,,,,,,,,,,,,,,,,,,,,,,,,,,,,,,,,,,,,,,,,,,,2.4343840777873993e-05,None,1,0.9523278223350644,309.6164174852893,None,309.6164174852893,None,309.6164174852893,None,311.6163234030828,None,2,0.8023473480716348,311.6163234030828,None,311.6163234030828,None,313.61626285035163,None,313.61626285035163,None,2,0.9855716908350587,313.61626285035163,None,1,0.7523370929993689,315.6163157769479,None,315.6163157769479,None,315.6163157769479,None,317.6162715139799,None,317.6162715139799,None,2,0.7855291739106178,317.6162715139799,None,319.61622118996456,None,319.61622118996456,None,1,0.6190106109715998,319.61622118996456,None,001,12,2019_Aug_27_1539,viewing,3.1.2,60.000048503318894,
north.png,stims/wedding-6.1a.mp4,stims/wedding-6.1b.mp4,stims/wedding-6.2a.mp4,stims/wedding-6.3a.mp4,stims/wedding-6.4a.mp4,stims/wedding-6.5.mp4,stimsday2details/newegg15.png,stimsday2details/egg6.png,stimsday2details/couple6.png,stimsday2details/newperson27.png,stimsday2details/new27.png,stimsday2details/gift6.png,stimsday2details/cn6.png,stimsday2details/n6.png,stimsday2details/ct6.png,stimsday2details/t6.png,0,2,2,2,0,0,0,0,,,,,,,,,,,,,,,,,,,,,,,,,None,None,,,,,,,,,,,,,,,,,,,,,,,,,,,,,,,,,,,,,,,,,,,,,,,,,,,,,,,,,,,,,,,,,,,,,,,,,,,,,,,,,,,,,,,,,,,,,001,12,2019_Aug_27_1539,viewing,3.1.2,60.000048503318894,
north.png,stims/wedding-6.1a.mp4,stims/wedding-6.1b.mp4,stims/wedding-6.2a.mp4,stims/wedding-6.3a.mp4,stims/wedding-6.4a.mp4,stims/wedding-6.5.mp4,stimsday2details/newegg15.png,stimsday2details/egg6.png,stimsday2details/couple6.png,stimsday2details/newperson27.png,stimsday2details/new27.png,stimsday2details/gift6.png,stimsday2details/cn6.png,stimsday2details/n6.png,stimsday2details/ct6.png,stimsday2details/t6.png,0,2,2,2,,,,,0,0,0,0,,,,,,,,,,,,,,,,,,,,,,,321.68287874525413,None,,,,,,,,,,,,,,,,,,,,,,,,,,,,,,,,,,,,,,,,,,,,,,,,,,,,,,,,,,,,,,,,,,,,,,,,,,,,,,,,,,,,,,,,,,,001,12,2019_Aug_27_1539,viewing,3.1.2,60.000048503318894,
north.png,stims/wedding-6.1a.mp4,stims/wedding-6.1b.mp4,stims/wedding-6.2a.mp4,stims/wedding-6.3a.mp4,stims/wedding-6.4a.mp4,stims/wedding-6.5.mp4,stimsday2details/newegg15.png,stimsday2details/egg6.png,stimsday2details/couple6.png,stimsday2details/newperson27.png,stimsday2details/new27.png,stimsday2details/gift6.png,stimsday2details/cn6.png,stimsday2details/n6.png,stimsday2details/ct6.png,stimsday2details/t6.png,0,2,2,2,,,,,,,,,0,0,0,0,,,,,,,,,,,,,,,,,,,,,3.092752934899181,None,331.84946955321357,356.7657848740928,356.7657848740928,None,365.76563891395926,382.7653749291785,382.7653749291785,405.7651334912516,405.7651334912516,429.7647880553268,429.7647880553268,None,,,,,,,,,,,,,,,,,,,,,,,,,,,,,,,,,,,,,,,,,,,,,,,,,,,,,,,,,,,,,,,,,,,,,,,,,,,,,001,12,2019_Aug_27_1539,viewing,3.1.2,60.000048503318894,
north.png,stims/wedding-6.1a.mp4,stims/wedding-6.1b.mp4,stims/wedding-6.2a.mp4,stims/wedding-6.3a.mp4,stims/wedding-6.4a.mp4,stims/wedding-6.5.mp4,stimsday2details/newegg15.png,stimsday2details/egg6.png,stimsday2details/couple6.png,stimsday2details/newperson27.png,stimsday2details/new27.png,stimsday2details/gift6.png,stimsday2details/cn6.png,stimsday2details/n6.png,stimsday2details/ct6.png,stimsday2details/t6.png,0,2,2,2,,,,,,,,,,,,,0,0,0,0,,,,,,,,,,,,,,,,,,,,,,,,,,,,,,,None,None,None,None,None,None,None,None,None,None,None,None,None,None,None,None,None,None,None,,None,None,None,,None,None,,,,,,,,,,,,,,,,,,,,,,,,,,,,,,,,,,,,,,,,,,,,,,,,,,,001,12,2019_Aug_27_1539,viewing,3.1.2,60.000048503318894,
north.png,stims/wedding-6.1a.mp4,stims/wedding-6.1b.mp4,stims/wedding-6.2a.mp4,stims/wedding-6.3a.mp4,stims/wedding-6.4a.mp4,stims/wedding-6.5.mp4,stimsday2details/newegg15.png,stimsday2details/egg6.png,stimsday2details/couple6.png,stimsday2details/newperson27.png,stimsday2details/new27.png,stimsday2details/gift6.png,stimsday2details/cn6.png,stimsday2details/n6.png,stimsday2details/ct6.png,stimsday2details/t6.png,0,2,2,2,,,,,,,,,,,,,,,,,,,,,,,,,,,,,,,,,,,,,,,,,,,,,,,,,,,,,,,,,,,,,,,,,,,,,,,,,3.657909110188484e-05,None,2,1.1857078140601516,453.7145949071273,None,453.7145949071273,None,453.7145949071273,None,455.71445253910497,None,2,0.8525087437592447,455.71445253910497,None,455.71445253910497,None,457.7144546872005,None,457.7144546872005,None,1,0.9020557310432196,457.7144546872005,None,2,0.9855366880074143,459.7144194692373,None,459.7144194692373,None,459.7144194692373,None,461.714414041955,None,461.714414041955,None,2,0.7690706248395145,461.714414041955,None,463.71443325607106,None,463.71443325607106,None,1,0.518885213881731,463.71443325607106,None,001,12,2019_Aug_27_1539,viewing,3.1.2,60.000048503318894,
south.png,stims/wedding-19.1a.mp4,stims/wedding-19.1b.mp4,stims/wedding-19.2a.mp4,stims/wedding-19.3b.mp4,stims/wedding-19.4a.mp4,stims/wedding-19.5.mp4,stimsday2details/egg19.png,stimsday2details/newegg16.png,stimsday2details/couple19.png,stimsday2details/newperson28.png,stimsday2details/gift19.png,stimsday2details/new28.png,stimsday2details/cn19.png,stimsday2details/n19.png,stimsday2details/t19.png,stimsday2details/ct19.png,0,3,3,3,0,0,0,0,,,,,,,,,,,,,,,,,,,,,,,,,465.7143188500777,None,,,,,,,,,,,,,,,,,,,,,,,,,,,,,,,,,,,,,,,,,,,,,,,,,,,,,,,,,,,,,,,,,,,,,,,,,,,,,,,,,,,,,,,,,,,,,001,12,2019_Aug_27_1539,viewing,3.1.2,60.000048503318894,
south.png,stims/wedding-19.1a.mp4,stims/wedding-19.1b.mp4,stims/wedding-19.2a.mp4,stims/wedding-19.3b.mp4,stims/wedding-19.4a.mp4,stims/wedding-19.5.mp4,stimsday2details/egg19.png,stimsday2details/newegg16.png,stimsday2details/couple19.png,stimsday2details/newperson28.png,stimsday2details/gift19.png,stimsday2details/new28.png,stimsday2details/cn19.png,stimsday2details/n19.png,stimsday2details/t19.png,stimsday2details/ct19.png,0,3,3,3,,,,,0,0,0,0,,,,,,,,,,,,,,,,,,,,,,,None,None,,,,,,,,,,,,,,,,,,,,,,,,,,,,,,,,,,,,,,,,,,,,,,,,,,,,,,,,,,,,,,,,,,,,,,,,,,,,,,,,,,,,,,,,,,,001,12,2019_Aug_27_1539,viewing,3.1.2,60.000048503318894,
south.png,stims/wedding-19.1a.mp4,stims/wedding-19.1b.mp4,stims/wedding-19.2a.mp4,stims/wedding-19.3b.mp4,stims/wedding-19.4a.mp4,stims/wedding-19.5.mp4,stimsday2details/egg19.png,stimsday2details/newegg16.png,stimsday2details/couple19.png,stimsday2details/newperson28.png,stimsday2details/gift19.png,stimsday2details/new28.png,stimsday2details/cn19.png,stimsday2details/n19.png,stimsday2details/t19.png,stimsday2details/ct19.png,0,3,3,3,,,,,,,,,0,0,0,0,,,,,,,,,,,,,,,,,,,,,3.213045188691467,None,476.1186003382318,500.89726813929155,500.91389965312555,None,509.91383486799896,526.8968738671392,526.9136417643167,549.8966104583815,549.9132979912683,None,573.9129865509458,None,,,,,,,,,,,,,,,,,,,,,,,,,,,,,,,,,,,,,,,,,,,,,,,,,,,,,,,,,,,,,,,,,,,,,,,,,,,,,001,12,2019_Aug_27_1539,viewing,3.1.2,60.000048503318894,
south.png,stims/wedding-19.1a.mp4,stims/wedding-19.1b.mp4,stims/wedding-19.2a.mp4,stims/wedding-19.3b.mp4,stims/wedding-19.4a.mp4,stims/wedding-19.5.mp4,stimsday2details/egg19.png,stimsday2details/newegg16.png,stimsday2details/couple19.png,stimsday2details/newperson28.png,stimsday2details/gift19.png,stimsday2details/new28.png,stimsday2details/cn19.png,stimsday2details/n19.png,stimsday2details/t19.png,stimsday2details/ct19.png,0,3,3,3,,,,,,,,,,,,,0,0,0,0,,,,,,,,,,,,,,,,,,,,,,,,,,,,,,,None,None,None,None,None,None,None,None,None,None,None,None,None,None,None,None,None,None,None,,None,None,None,,None,None,,,,,,,,,,,,,,,,,,,,,,,,,,,,,,,,,,,,,,,,,,,,,,,,,,,001,12,2019_Aug_27_1539,viewing,3.1.2,60.000048503318894,
south.png,stims/wedding-19.1a.mp4,stims/wedding-19.1b.mp4,stims/wedding-19.2a.mp4,stims/wedding-19.3b.mp4,stims/wedding-19.4a.mp4,stims/wedding-19.5.mp4,stimsday2details/egg19.png,stimsday2details/newegg16.png,stimsday2details/couple19.png,stimsday2details/newperson28.png,stimsday2details/gift19.png,stimsday2details/new28.png,stimsday2details/cn19.png,stimsday2details/n19.png,stimsday2details/t19.png,stimsday2details/ct19.png,0,3,3,3,,,,,,,,,,,,,,,,,,,,,,,,,,,,,,,,,,,,,,,,,,,,,,,,,,,,,,,,,,,,,,,,,,,,,,,,,4.100380465388298e-05,None,2,0.8835159037262201,598.2982543469407,None,598.2982543469407,None,598.2982543469407,None,600.27929854393,None,1,0.9689881862141192,600.27929854393,None,600.27929854393,None,602.2793169473298,None,602.2793169473298,None,1,0.7356734941713512,602.2793169473298,None,1,1.118928351905197,604.2792464043014,None,604.2792464043014,None,604.2792464043014,None,606.279289022088,None,606.279289022088,None,1,0.7669036420993507,606.279289022088,None,608.2791752619669,None,608.2791752619669,None,1,1.5023016352206469,608.2791752619669,None,001,12,2019_Aug_27_1539,viewing,3.1.2,60.000048503318894,
south.png,stims/wedding-38.1a.mp4,stims/wedding-38.1b.mp4,stims/wedding-38.2b.mp4,stims/wedding-38.3a.mp4,stims/wedding-38.4b.mp4,stims/wedding-38.5.mp4,stimsday2details/painting38.png,stimsday2details/newpainting13.png,stimsday2details/newperson29.png,stimsday2details/couple38.png,stimsday2details/gift38.png,stimsday2details/new29.png,stimsday2details/cn38.png,stimsday2details/n38.png,stimsday2details/t38.png,stimsday2details/ct38.png,0,4,4,4,0,0,0,0,,,,,,,,,,,,,,,,,,,,,,,,,610.2792254881933,None,,,,,,,,,,,,,,,,,,,,,,,,,,,,,,,,,,,,,,,,,,,,,,,,,,,,,,,,,,,,,,,,,,,,,,,,,,,,,,,,,,,,,,,,,,,,,001,12,2019_Aug_27_1539,viewing,3.1.2,60.000048503318894,
south.png,stims/wedding-38.1a.mp4,stims/wedding-38.1b.mp4,stims/wedding-38.2b.mp4,stims/wedding-38.3a.mp4,stims/wedding-38.4b.mp4,stims/wedding-38.5.mp4,stimsday2details/painting38.png,stimsday2details/newpainting13.png,stimsday2details/newperson29.png,stimsday2details/couple38.png,stimsday2details/gift38.png,stimsday2details/new29.png,stimsday2details/cn38.png,stimsday2details/n38.png,stimsday2details/t38.png,stimsday2details/ct38.png,0,4,4,4,,,,,0,0,0,0,,,,,,,,,,,,,,,,,,,,,,,None,None,,,,,,,,,,,,,,,,,,,,,,,,,,,,,,,,,,,,,,,,,,,,,,,,,,,,,,,,,,,,,,,,,,,,,,,,,,,,,,,,,,,,,,,,,,,001,12,2019_Aug_27_1539,viewing,3.1.2,60.000048503318894,
south.png,stims/wedding-38.1a.mp4,stims/wedding-38.1b.mp4,stims/wedding-38.2b.mp4,stims/wedding-38.3a.mp4,stims/wedding-38.4b.mp4,stims/wedding-38.5.mp4,stimsday2details/painting38.png,stimsday2details/newpainting13.png,stimsday2details/newperson29.png,stimsday2details/couple38.png,stimsday2details/gift38.png,stimsday2details/new29.png,stimsday2details/cn38.png,stimsday2details/n38.png,stimsday2details/t38.png,stimsday2details/ct38.png,0,4,4,4,,,,,,,,,0,0,0,0,,,,,,,,,,,,,,,,,,,,,3.0177294737659395,None,620.5291068581864,645.5121198152192,645.5286995419301,None,654.5286016012542,None,671.5284475251101,694.5114785153419,694.5281450571492,None,718.5278518809937,None,,,,,,,,,,,,,,,,,,,,,,,,,,,,,,,,,,,,,,,,,,,,,,,,,,,,,,,,,,,,,,,,,,,,,,,,,,,,,001,12,2019_Aug_27_1539,viewing,3.1.2,60.000048503318894,
south.png,stims/wedding-38.1a.mp4,stims/wedding-38.1b.mp4,stims/wedding-38.2b.mp4,stims/wedding-38.3a.mp4,stims/wedding-38.4b.mp4,stims/wedding-38.5.mp4,stimsday2details/painting38.png,stimsday2details/newpainting13.png,stimsday2details/newperson29.png,stimsday2details/couple38.png,stimsday2details/gift38.png,stimsday2details/new29.png,stimsday2details/cn38.png,stimsday2details/n38.png,stimsday2details/t38.png,stimsday2details/ct38.png,0,4,4,4,,,,,,,,,,,,,0,0,0,0,,,,,,,,,,,,,,,,,,,,,,,,,,,,,,,None,None,None,None,None,None,None,None,None,None,None,None,None,None,None,None,None,None,None,,None,None,None,,None,None,,,,,,,,,,,,,,,,,,,,,,,,,,,,,,,,,,,,,,,,,,,,,,,,,,,001,12,2019_Aug_27_1539,viewing,3.1.2,60.000048503318894,
south.png,stims/wedding-38.1a.mp4,stims/wedding-38.1b.mp4,stims/wedding-38.2b.mp4,stims/wedding-38.3a.mp4,stims/wedding-38.4b.mp4,stims/wedding-38.5.mp4,stimsday2details/painting38.png,stimsday2details/newpainting13.png,stimsday2details/newperson29.png,stimsday2details/couple38.png,stimsday2details/gift38.png,stimsday2details/new29.png,stimsday2details/cn38.png,stimsday2details/n38.png,stimsday2details/t38.png,stimsday2details/ct38.png,0,4,4,4,,,,,,,,,,,,,,,,,,,,,,,,,,,,,,,,,,,,,,,,,,,,,,,,,,,,,,,,,,,,,,,,,,,,,,,,,4.110019654035568e-05,None,2,0.8689716137014329,742.427598753944,None,742.427598753944,None,742.427598753944,None,744.4108566860668,None,1,0.8002969496883452,744.4108566860668,None,744.4108566860668,None,746.4108332782052,None,746.4108332782052,None,2,0.8357141669839621,746.4108332782052,None,1,0.6856061229482293,748.4107634671964,None,748.4107634671964,None,748.4107634671964,None,750.4107805471867,None,750.4107805471867,None,1,0.5355114340782166,750.4107805471867,None,752.4106794381514,None,752.4106794381514,None,2,0.702360269613564,752.4106794381514,None,001,12,2019_Aug_27_1539,viewing,3.1.2,60.000048503318894,
north.png,stims/wedding-2.1a.mp4,stims/wedding-2.1b.mp4,stims/wedding-2.2b.mp4,stims/wedding-2.3b.mp4,stims/wedding-2.4b.mp4,stims/wedding-2.5.mp4,stimsday2details/painting2.png,stimsday2details/newpainting14.png,stimsday2details/newperson30.png,stimsday2details/couple2.png,stimsday2details/new30.png,stimsday2details/gift2.png,stimsday2details/n2.png,stimsday2details/cn2.png,stimsday2details/ct2.png,stimsday2details/t2.png,0,5,5,5,0,0,0,0,,,,,,,,,,,,,,,,,,,,,,,,,None,None,,,,,,,,,,,,,,,,,,,,,,,,,,,,,,,,,,,,,,,,,,,,,,,,,,,,,,,,,,,,,,,,,,,,,,,,,,,,,,,,,,,,,,,,,,,,,001,12,2019_Aug_27_1539,viewing,3.1.2,60.000048503318894,
north.png,stims/wedding-2.1a.mp4,stims/wedding-2.1b.mp4,stims/wedding-2.2b.mp4,stims/wedding-2.3b.mp4,stims/wedding-2.4b.mp4,stims/wedding-2.5.mp4,stimsday2details/painting2.png,stimsday2details/newpainting14.png,stimsday2details/newperson30.png,stimsday2details/couple2.png,stimsday2details/new30.png,stimsday2details/gift2.png,stimsday2details/n2.png,stimsday2details/cn2.png,stimsday2details/ct2.png,stimsday2details/t2.png,0,5,5,5,,,,,0,0,0,0,,,,,,,,,,,,,,,,,,,,,,,754.5439945352264,None,,,,,,,,,,,,,,,,,,,,,,,,,,,,,,,,,,,,,,,,,,,,,,,,,,,,,,,,,,,,,,,,,,,,,,,,,,,,,,,,,,,,,,,,,,,001,12,2019_Aug_27_1539,viewing,3.1.2,60.000048503318894,
north.png,stims/wedding-2.1a.mp4,stims/wedding-2.1b.mp4,stims/wedding-2.2b.mp4,stims/wedding-2.3b.mp4,stims/wedding-2.4b.mp4,stims/wedding-2.5.mp4,stimsday2details/painting2.png,stimsday2details/newpainting14.png,stimsday2details/newperson30.png,stimsday2details/couple2.png,stimsday2details/new30.png,stimsday2details/gift2.png,stimsday2details/n2.png,stimsday2details/cn2.png,stimsday2details/ct2.png,stimsday2details/t2.png,0,5,5,5,,,,,,,,,0,0,0,0,,,,,,,,,,,,,,,,,,,,,3.048463081009686,None,764.7439083410427,None,789.6935435603373,None,798.6934640621766,None,815.693219718989,838.6929772393778,838.6929772393778,862.6926761930808,862.6926761930808,None,,,,,,,,,,,,,,,,,,,,,,,,,,,,,,,,,,,,,,,,,,,,,,,,,,,,,,,,,,,,,,,,,,,,,,,,,,,,,001,12,2019_Aug_27_1539,viewing,3.1.2,60.000048503318894,
north.png,stims/wedding-2.1a.mp4,stims/wedding-2.1b.mp4,stims/wedding-2.2b.mp4,stims/wedding-2.3b.mp4,stims/wedding-2.4b.mp4,stims/wedding-2.5.mp4,stimsday2details/painting2.png,stimsday2details/newpainting14.png,stimsday2details/newperson30.png,stimsday2details/couple2.png,stimsday2details/new30.png,stimsday2details/gift2.png,stimsday2details/n2.png,stimsday2details/cn2.png,stimsday2details/ct2.png,stimsday2details/t2.png,0,5,5,5,,,,,,,,,,,,,0,0,0,0,,,,,,,,,,,,,,,,,,,,,,,,,,,,,,,None,None,None,None,None,None,None,None,None,None,None,None,None,None,None,None,None,None,None,,None,None,None,,None,None,,,,,,,,,,,,,,,,,,,,,,,,,,,,,,,,,,,,,,,,,,,,,,,,,,,001,12,2019_Aug_27_1539,viewing,3.1.2,60.000048503318894,
north.png,stims/wedding-2.1a.mp4,stims/wedding-2.1b.mp4,stims/wedding-2.2b.mp4,stims/wedding-2.3b.mp4,stims/wedding-2.4b.mp4,stims/wedding-2.5.mp4,stimsday2details/painting2.png,stimsday2details/newpainting14.png,stimsday2details/newperson30.png,stimsday2details/couple2.png,stimsday2details/new30.png,stimsday2details/gift2.png,stimsday2details/n2.png,stimsday2details/cn2.png,stimsday2details/ct2.png,stimsday2details/t2.png,0,5,5,5,,,,,,,,,,,,,,,,,,,,,,,,,,,,,,,,,,,,,,,,,,,,,,,,,,,,,,,,,,,,,,,,,,,,,,,,,4.454189911484718e-05,None,1,0.7817934756167233,886.7128268470988,None,886.7128268470988,None,886.7128268470988,None,888.6923123872839,None,1,0.6855792859569192,888.6923123872839,None,888.6923123872839,None,890.6923171840608,None,890.6923171840608,None,2,0.7002729983069003,890.6923171840608,None,2,1.1190702551975846,892.692290133331,None,892.692290133331,None,892.692290133331,None,894.6922125322744,None,894.6922125322744,None,2,0.8689832901582122,894.6922125322744,None,896.6922554201446,None,896.6922554201446,None,1,1.5523286596871912,896.6922554201446,None,001,12,2019_Aug_27_1539,viewing,3.1.2,60.000048503318894,
north.png,stims/wedding-23.1a.mp4,stims/wedding-23.1b.mp4,stims/wedding-23.2a.mp4,stims/wedding-23.3a.mp4,stims/wedding-23.4a.mp4,stims/wedding-23.5.mp4,stimsday2details/newegg17.png,stimsday2details/egg23.png,stimsday2details/couple23.png,stimsday2details/newperson31.png,stimsday2details/gift23.png,stimsday2details/new31.png,stimsday2details/n23.png,stimsday2details/cn23.png,stimsday2details/ct23.png,stimsday2details/t23.png,0,6,6,6,0,0,0,0,,,,,,,,,,,,,,,,,,,,,,,,,None,None,,,,,,,,,,,,,,,,,,,,,,,,,,,,,,,,,,,,,,,,,,,,,,,,,,,,,,,,,,,,,,,,,,,,,,,,,,,,,,,,,,,,,,,,,,,,,001,12,2019_Aug_27_1539,viewing,3.1.2,60.000048503318894,
north.png,stims/wedding-23.1a.mp4,stims/wedding-23.1b.mp4,stims/wedding-23.2a.mp4,stims/wedding-23.3a.mp4,stims/wedding-23.4a.mp4,stims/wedding-23.5.mp4,stimsday2details/newegg17.png,stimsday2details/egg23.png,stimsday2details/couple23.png,stimsday2details/newperson31.png,stimsday2details/gift23.png,stimsday2details/new31.png,stimsday2details/n23.png,stimsday2details/cn23.png,stimsday2details/ct23.png,stimsday2details/t23.png,0,6,6,6,,,,,0,0,0,0,,,,,,,,,,,,,,,,,,,,,,,898.8422119091265,None,,,,,,,,,,,,,,,,,,,,,,,,,,,,,,,,,,,,,,,,,,,,,,,,,,,,,,,,,,,,,,,,,,,,,,,,,,,,,,,,,,,,,,,,,,,001,12,2019_Aug_27_1539,viewing,3.1.2,60.000048503318894,
north.png,stims/wedding-23.1a.mp4,stims/wedding-23.1b.mp4,stims/wedding-23.2a.mp4,stims/wedding-23.3a.mp4,stims/wedding-23.4a.mp4,stims/wedding-23.5.mp4,stimsday2details/newegg17.png,stimsday2details/egg23.png,stimsday2details/couple23.png,stimsday2details/newperson31.png,stimsday2details/gift23.png,stimsday2details/new31.png,stimsday2details/n23.png,stimsday2details/cn23.png,stimsday2details/ct23.png,stimsday2details/t23.png,0,6,6,6,,,,,,,,,0,0,0,0,,,,,,,,,,,,,,,,,,,,,3.3438826641067863,None,909.3754065581597,934.0250681899488,934.0416878233664,None,943.0416482230648,960.0246888240799,960.0414322102442,983.0244722613133,983.0411433163099,1007.0241501652636,1007.0407974920236,None,,,,,,,,,,,,,,,,,,,,,,,,,,,,,,,,,,,,,,,,,,,,,,,,,,,,,,,,,,,,,,,,,,,,,,,,,,,,,001,12,2019_Aug_27_1539,viewing,3.1.2,60.000048503318894,
north.png,stims/wedding-23.1a.mp4,stims/wedding-23.1b.mp4,stims/wedding-23.2a.mp4,stims/wedding-23.3a.mp4,stims/wedding-23.4a.mp4,stims/wedding-23.5.mp4,stimsday2details/newegg17.png,stimsday2details/egg23.png,stimsday2details/couple23.png,stimsday2details/newperson31.png,stimsday2details/gift23.png,stimsday2details/new31.png,stimsday2details/n23.png,stimsday2details/cn23.png,stimsday2details/ct23.png,stimsday2details/t23.png,0,6,6,6,,,,,,,,,,,,,0,0,0,0,,,,,,,,,,,,,,,,,,,,,,,,,,,,,,,None,None,None,None,None,None,None,None,None,None,None,None,None,None,None,None,None,None,None,,None,None,None,,None,None,,,,,,,,,,,,,,,,,,,,,,,,,,,,,,,,,,,,,,,,,,,,,,,,,,,001,12,2019_Aug_27_1539,viewing,3.1.2,60.000048503318894,
north.png,stims/wedding-23.1a.mp4,stims/wedding-23.1b.mp4,stims/wedding-23.2a.mp4,stims/wedding-23.3a.mp4,stims/wedding-23.4a.mp4,stims/wedding-23.5.mp4,stimsday2details/newegg17.png,stimsday2details/egg23.png,stimsday2details/couple23.png,stimsday2details/newperson31.png,stimsday2details/gift23.png,stimsday2details/new31.png,stimsday2details/n23.png,stimsday2details/cn23.png,stimsday2details/ct23.png,stimsday2details/t23.png,0,6,6,6,,,,,,,,,,,,,,,,,,,,,,,,,,,,,,,,,,,,,,,,,,,,,,,,,,,,,,,,,,,,,,,,,,,,,,,,,3.68412584066391e-05,None,1,0.902320466004312,1031.5071255341172,None,1031.5071255341172,None,1031.5071255341172,None,1033.4904936971143,None,2,0.8022597436793149,1033.4904936971143,None,1033.4904936971143,None,1035.4904679120518,None,1035.4904679120518,None,1,0.8024249584414065,1035.4904679120518,None,2,1.0355115639977157,1037.4904536982067,None,1037.4904536982067,None,1037.4904536982067,None,1039.4904136410914,None,1039.4904136410914,None,1,0.5855894451960921,1039.4904136410914,None,1041.490392535925,None,1041.490392535925,None,1,1.5522654289379716,1041.490392535925,None,001,12,2019_Aug_27_1539,viewing,3.1.2,60.000048503318894,
south.png,stims/wedding-1.1a.mp4,stims/wedding-1.1b.mp4,stims/wedding-1.2b.mp4,stims/wedding-1.3a.mp4,stims/wedding-1.4b.mp4,stims/wedding-1.5.mp4,stimsday2details/newpainting15.png,stimsday2details/painting1.png,stimsday2details/couple1.png,stimsday2details/newperson32.png,stimsday2details/new32.png,stimsday2details/gift1.png,stimsday2details/n1.png,stimsday2details/cn1.png,stimsday2details/ct1.png,stimsday2details/t1.png,0,7,7,7,0,0,0,0,,,,,,,,,,,,,,,,,,,,,,,,,1043.4903434412554,None,,,,,,,,,,,,,,,,,,,,,,,,,,,,,,,,,,,,,,,,,,,,,,,,,,,,,,,,,,,,,,,,,,,,,,,,,,,,,,,,,,,,,,,,,,,,,001,12,2019_Aug_27_1539,viewing,3.1.2,60.000048503318894,
south.png,stims/wedding-1.1a.mp4,stims/wedding-1.1b.mp4,stims/wedding-1.2b.mp4,stims/wedding-1.3a.mp4,stims/wedding-1.4b.mp4,stims/wedding-1.5.mp4,stimsday2details/newpainting15.png,stimsday2details/painting1.png,stimsday2details/couple1.png,stimsday2details/newperson32.png,stimsday2details/new32.png,stimsday2details/gift1.png,stimsday2details/n1.png,stimsday2details/cn1.png,stimsday2details/ct1.png,stimsday2details/t1.png,0,7,7,7,,,,,0,0,0,0,,,,,,,,,,,,,,,,,,,,,,,None,None,,,,,,,,,,,,,,,,,,,,,,,,,,,,,,,,,,,,,,,,,,,,,,,,,,,,,,,,,,,,,,,,,,,,,,,,,,,,,,,,,,,,,,,,,,,001,12,2019_Aug_27_1539,viewing,3.1.2,60.000048503318894,
south.png,stims/wedding-1.1a.mp4,stims/wedding-1.1b.mp4,stims/wedding-1.2b.mp4,stims/wedding-1.3a.mp4,stims/wedding-1.4b.mp4,stims/wedding-1.5.mp4,stimsday2details/newpainting15.png,stimsday2details/painting1.png,stimsday2details/couple1.png,stimsday2details/newperson32.png,stimsday2details/new32.png,stimsday2details/gift1.png,stimsday2details/n1.png,stimsday2details/cn1.png,stimsday2details/ct1.png,stimsday2details/t1.png,0,7,7,7,,,,,,,,,0,0,0,0,,,,,,,,,,,,,,,,,,,,,3.0987304761074483,None,1053.9569173143245,1078.8731885133311,1078.8731885133311,None,1087.8731265752576,None,1104.872907682322,1127.8726274333894,1127.8726274333894,1151.8724421421066,1151.8724421421066,None,,,,,,,,,,,,,,,,,,,,,,,,,,,,,,,,,,,,,,,,,,,,,,,,,,,,,,,,,,,,,,,,,,,,,,,,,,,,,001,12,2019_Aug_27_1539,viewing,3.1.2,60.000048503318894,
south.png,stims/wedding-1.1a.mp4,stims/wedding-1.1b.mp4,stims/wedding-1.2b.mp4,stims/wedding-1.3a.mp4,stims/wedding-1.4b.mp4,stims/wedding-1.5.mp4,stimsday2details/newpainting15.png,stimsday2details/painting1.png,stimsday2details/couple1.png,stimsday2details/newperson32.png,stimsday2details/new32.png,stimsday2details/gift1.png,stimsday2details/n1.png,stimsday2details/cn1.png,stimsday2details/ct1.png,stimsday2details/t1.png,0,7,7,7,,,,,,,,,,,,,0,0,0,0,,,,,,,,,,,,,,,,,,,,,,,,,,,,,,,None,None,None,None,None,None,None,None,None,None,None,None,None,None,None,None,None,None,None,,None,None,None,,None,None,,,,,,,,,,,,,,,,,,,,,,,,,,,,,,,,,,,,,,,,,,,,,,,,,,,001,12,2019_Aug_27_1539,viewing,3.1.2,60.000048503318894,
south.png,stims/wedding-1.1a.mp4,stims/wedding-1.1b.mp4,stims/wedding-1.2b.mp4,stims/wedding-1.3a.mp4,stims/wedding-1.4b.mp4,stims/wedding-1.5.mp4,stimsday2details/newpainting15.png,stimsday2details/painting1.png,stimsday2details/couple1.png,stimsday2details/newperson32.png,stimsday2details/new32.png,stimsday2details/gift1.png,stimsday2details/n1.png,stimsday2details/cn1.png,stimsday2details/ct1.png,stimsday2details/t1.png,0,7,7,7,,,,,,,,,,,,,,,,,,,,,,,,,,,,,,,,,,,,,,,,,,,,,,,,,,,,,,,,,,,,,,,,,,,,,,,,,5.1315873861312866e-05,None,1,1.2689911159686744,1175.8052815590054,None,1175.8052815590054,None,1175.8052815590054,None,1177.788577312138,None,2,0.8022045628167689,1177.788577312138,None,1177.788577312138,None,1179.7885387362912,None,1179.7885387362912,None,1,0.6525570461526513,1179.7885387362912,None,2,1.0187976667657495,1181.7885463512503,None,1181.7885463512503,None,1181.7885463512503,None,1183.7885866472498,None,1183.7885866472498,None,2,0.6521993880160153,1183.7885866472498,None,1185.7885649329983,None,1185.7885649329983,None,2,1.1690252739936113,1185.7885649329983,None,001,12,2019_Aug_27_1539,viewing,3.1.2,60.000048503318894,
south.png,stims/wedding-29.1a.mp4,stims/wedding-29.1b.mp4,stims/wedding-29.2a.mp4,stims/wedding-29.3b.mp4,stims/wedding-29.4a.mp4,stims/wedding-29.5.mp4,stimsday2details/egg29.png,stimsday2details/newegg18.png,stimsday2details/couple29.png,stimsday2details/newperson33.png,stimsday2details/new33.png,stimsday2details/gift29.png,stimsday2details/n29.png,stimsday2details/cn29.png,stimsday2details/ct29.png,stimsday2details/t29.png,0,8,8,8,0,0,0,0,,,,,,,,,,,,,,,,,,,,,,,,,1187.7884608260356,None,,,,,,,,,,,,,,,,,,,,,,,,,,,,,,,,,,,,,,,,,,,,,,,,,,,,,,,,,,,,,,,,,,,,,,,,,,,,,,,,,,,,,,,,,,,,,001,12,2019_Aug_27_1539,viewing,3.1.2,60.000048503318894,
south.png,stims/wedding-29.1a.mp4,stims/wedding-29.1b.mp4,stims/wedding-29.2a.mp4,stims/wedding-29.3b.mp4,stims/wedding-29.4a.mp4,stims/wedding-29.5.mp4,stimsday2details/egg29.png,stimsday2details/newegg18.png,stimsday2details/couple29.png,stimsday2details/newperson33.png,stimsday2details/new33.png,stimsday2details/gift29.png,stimsday2details/n29.png,stimsday2details/cn29.png,stimsday2details/ct29.png,stimsday2details/t29.png,0,8,8,8,,,,,0,0,0,0,,,,,,,,,,,,,,,,,,,,,,,None,None,,,,,,,,,,,,,,,,,,,,,,,,,,,,,,,,,,,,,,,,,,,,,,,,,,,,,,,,,,,,,,,,,,,,,,,,,,,,,,,,,,,,,,,,,,,001,12,2019_Aug_27_1539,viewing,3.1.2,60.000048503318894,
south.png,stims/wedding-29.1a.mp4,stims/wedding-29.1b.mp4,stims/wedding-29.2a.mp4,stims/wedding-29.3b.mp4,stims/wedding-29.4a.mp4,stims/wedding-29.5.mp4,stimsday2details/egg29.png,stimsday2details/newegg18.png,stimsday2details/couple29.png,stimsday2details/newperson33.png,stimsday2details/new33.png,stimsday2details/gift29.png,stimsday2details/n29.png,stimsday2details/cn29.png,stimsday2details/ct29.png,stimsday2details/t29.png,0,8,8,8,,,,,,,,,0,0,0,0,,,,,,,,,,,,,,,,,,,,,3.1277308561839163,None,1198.3383761253208,1223.2047521923669,1223.2213163832203,None,1232.2212434373796,None,1249.2210580422543,1272.2040846711025,1272.2207078761421,None,1296.2204361390322,None,,,,,,,,,,,,,,,,,,,,,,,,,,,,,,,,,,,,,,,,,,,,,,,,,,,,,,,,,,,,,,,,,,,,,,,,,,,,,001,12,2019_Aug_27_1539,viewing,3.1.2,60.000048503318894,
south.png,stims/wedding-29.1a.mp4,stims/wedding-29.1b.mp4,stims/wedding-29.2a.mp4,stims/wedding-29.3b.mp4,stims/wedding-29.4a.mp4,stims/wedding-29.5.mp4,stimsday2details/egg29.png,stimsday2details/newegg18.png,stimsday2details/couple29.png,stimsday2details/newperson33.png,stimsday2details/new33.png,stimsday2details/gift29.png,stimsday2details/n29.png,stimsday2details/cn29.png,stimsday2details/ct29.png,stimsday2details/t29.png,0,8,8,8,,,,,,,,,,,,,0,0,0,0,,,,,,,,,,,,,,,,,,,,,,,,,,,,,,,None,None,None,None,None,None,None,None,None,None,None,None,None,None,None,None,None,None,None,,None,None,None,,None,None,,,,,,,,,,,,,,,,,,,,,,,,,,,,,,,,,,,,,,,,,,,,,,,,,,,001,12,2019_Aug_27_1539,viewing,3.1.2,60.000048503318894,
south.png,stims/wedding-29.1a.mp4,stims/wedding-29.1b.mp4,stims/wedding-29.2a.mp4,stims/wedding-29.3b.mp4,stims/wedding-29.4a.mp4,stims/wedding-29.5.mp4,stimsday2details/egg29.png,stimsday2details/newegg18.png,stimsday2details/couple29.png,stimsday2details/newperson33.png,stimsday2details/new33.png,stimsday2details/gift29.png,stimsday2details/n29.png,stimsday2details/cn29.png,stimsday2details/ct29.png,stimsday2details/t29.png,0,8,8,8,,,,,,,,,,,,,,,,,,,,,,,,,,,,,,,,,,,,,,,,,,,,,,,,,,,,,,,,,,,,,,,,,,,,,,,,,4.6304892748594284e-05,None,1,0.8811808349564672,1320.041106104385,None,1320.041106104385,None,1320.041106104385,None,1322.0200511850417,None,1,0.6355345631018281,1322.0200511850417,None,1322.0200511850417,None,1324.0200387691148,None,1324.0200387691148,None,1,0.6524111982434988,1324.0200387691148,None,2,1.0188768873922527,1326.0200841459446,None,1326.0200841459446,None,1326.0200841459446,None,1328.0200619930401,None,1328.0200619930401,None,2,0.635415512137115,1328.0200619930401,None,1330.0199651350267,None,1330.0199651350267,None,2,0.6524012959562242,1330.0199651350267,None,001,12,2019_Aug_27_1539,viewing,3.1.2,60.000048503318894,
north.png,stims/wedding-28.1a.mp4,stims/wedding-28.1b.mp4,stims/wedding-28.2b.mp4,stims/wedding-28.3b.mp4,stims/wedding-28.4b.mp4,stims/wedding-28.5.mp4,stimsday2details/newpainting16.png,stimsday2details/painting28.png,stimsday2details/newperson34.png,stimsday2details/couple28.png,stimsday2details/new34.png,stimsday2details/gift28.png,stimsday2details/cn28.png,stimsday2details/n28.png,stimsday2details/ct28.png,stimsday2details/t28.png,0,9,9,9,0,0,0,0,,,,,,,,,,,,,,,,,,,,,,,,,None,None,,,,,,,,,,,,,,,,,,,,,,,,,,,,,,,,,,,,,,,,,,,,,,,,,,,,,,,,,,,,,,,,,,,,,,,,,,,,,,,,,,,,,,,,,,,,,001,12,2019_Aug_27_1539,viewing,3.1.2,60.000048503318894,
north.png,stims/wedding-28.1a.mp4,stims/wedding-28.1b.mp4,stims/wedding-28.2b.mp4,stims/wedding-28.3b.mp4,stims/wedding-28.4b.mp4,stims/wedding-28.5.mp4,stimsday2details/newpainting16.png,stimsday2details/painting28.png,stimsday2details/newperson34.png,stimsday2details/couple28.png,stimsday2details/new34.png,stimsday2details/gift28.png,stimsday2details/cn28.png,stimsday2details/n28.png,stimsday2details/ct28.png,stimsday2details/t28.png,0,9,9,9,,,,,0,0,0,0,,,,,,,,,,,,,,,,,,,,,,,1332.36994468607,None,,,,,,,,,,,,,,,,,,,,,,,,,,,,,,,,,,,,,,,,,,,,,,,,,,,,,,,,,,,,,,,,,,,,,,,,,,,,,,,,,,,,,,,,,,,001,12,2019_Aug_27_1539,viewing,3.1.2,60.000048503318894,
north.png,stims/wedding-28.1a.mp4,stims/wedding-28.1b.mp4,stims/wedding-28.2b.mp4,stims/wedding-28.3b.mp4,stims/wedding-28.4b.mp4,stims/wedding-28.5.mp4,stimsday2details/newpainting16.png,stimsday2details/painting28.png,stimsday2details/newperson34.png,stimsday2details/couple28.png,stimsday2details/new34.png,stimsday2details/gift28.png,stimsday2details/cn28.png,stimsday2details/n28.png,stimsday2details/ct28.png,stimsday2details/t28.png,0,9,9,9,,,,,,,,,0,0,0,0,,,,,,,,,,,,,,,,,,,,,2.9741086210124195,None,1342.586495571304,1367.6028309990652,1367.6195381521247,None,1376.6194275859743,None,1393.619146828074,1416.6022141049616,1416.6189135382883,None,1440.6185519760475,None,,,,,,,,,,,,,,,,,,,,,,,,,,,,,,,,,,,,,,,,,,,,,,,,,,,,,,,,,,,,,,,,,,,,,,,,,,,,,001,12,2019_Aug_27_1539,viewing,3.1.2,60.000048503318894,
north.png,stims/wedding-28.1a.mp4,stims/wedding-28.1b.mp4,stims/wedding-28.2b.mp4,stims/wedding-28.3b.mp4,stims/wedding-28.4b.mp4,stims/wedding-28.5.mp4,stimsday2details/newpainting16.png,stimsday2details/painting28.png,stimsday2details/newperson34.png,stimsday2details/couple28.png,stimsday2details/new34.png,stimsday2details/gift28.png,stimsday2details/cn28.png,stimsday2details/n28.png,stimsday2details/ct28.png,stimsday2details/t28.png,0,9,9,9,,,,,,,,,,,,,0,0,0,0,,,,,,,,,,,,,,,,,,,,,,,,,,,,,,,None,None,None,None,None,None,None,None,None,None,None,None,None,None,None,None,None,None,None,,None,None,None,,None,None,,,,,,,,,,,,,,,,,,,,,,,,,,,,,,,,,,,,,,,,,,,,,,,,,,,001,12,2019_Aug_27_1539,viewing,3.1.2,60.000048503318894,
north.png,stims/wedding-28.1a.mp4,stims/wedding-28.1b.mp4,stims/wedding-28.2b.mp4,stims/wedding-28.3b.mp4,stims/wedding-28.4b.mp4,stims/wedding-28.5.mp4,stimsday2details/newpainting16.png,stimsday2details/painting28.png,stimsday2details/newperson34.png,stimsday2details/couple28.png,stimsday2details/new34.png,stimsday2details/gift28.png,stimsday2details/cn28.png,stimsday2details/n28.png,stimsday2details/ct28.png,stimsday2details/t28.png,0,9,9,9,,,,,,,,,,,,,,,,,,,,,,,,,,,,,,,,,,,,,,,,,,,,,,,,,,,,,,,,,,,,,,,,,,,,,,,,,4.5925844460725784e-05,None,2,1.2022953783161938,1465.1516988473013,None,1465.1516988473013,None,1465.1516988473013,None,1467.1515334662981,None,2,0.7856019749306142,1467.1515334662981,None,1467.1515334662981,None,1469.1515478910878,None,1469.1515478910878,None,2,0.7189439292997122,1469.1515478910878,None,2,0.9528299272060394,1471.1515712342225,None,1471.1515712342225,None,1471.1515712342225,None,1473.1514919190668,None,1473.1514919190668,None,2,0.7189776659943163,1473.1514919190668,None,1475.1515084030107,None,1475.1515084030107,None,2,0.9355803220532835,1475.1515084030107,None,001,12,2019_Aug_27_1539,viewing,3.1.2,60.000048503318894,
north.png,stims/wedding-20.1a.mp4,stims/wedding-20.1b.mp4,stims/wedding-20.2b.mp4,stims/wedding-20.3b.mp4,stims/wedding-20.4b.mp4,stims/wedding-20.5.mp4,stimsday2details/newpainting17.png,stimsday2details/painting20.png,stimsday2details/newperson35.png,stimsday2details/couple20.png,stimsday2details/gift20.png,stimsday2details/new35.png,stimsday2details/n20.png,stimsday2details/cn20.png,stimsday2details/ct20.png,stimsday2details/t20.png,0,10,10,10,0,0,0,0,,,,,,,,,,,,,,,,,,,,,,,,,None,None,,,,,,,,,,,,,,,,,,,,,,,,,,,,,,,,,,,,,,,,,,,,,,,,,,,,,,,,,,,,,,,,,,,,,,,,,,,,,,,,,,,,,,,,,,,,,001,12,2019_Aug_27_1539,viewing,3.1.2,60.000048503318894,
north.png,stims/wedding-20.1a.mp4,stims/wedding-20.1b.mp4,stims/wedding-20.2b.mp4,stims/wedding-20.3b.mp4,stims/wedding-20.4b.mp4,stims/wedding-20.5.mp4,stimsday2details/newpainting17.png,stimsday2details/painting20.png,stimsday2details/newperson35.png,stimsday2details/couple20.png,stimsday2details/gift20.png,stimsday2details/new35.png,stimsday2details/n20.png,stimsday2details/cn20.png,stimsday2details/ct20.png,stimsday2details/t20.png,0,10,10,10,,,,,0,0,0,0,,,,,,,,,,,,,,,,,,,,,,,1477.4014255199581,None,,,,,,,,,,,,,,,,,,,,,,,,,,,,,,,,,,,,,,,,,,,,,,,,,,,,,,,,,,,,,,,,,,,,,,,,,,,,,,,,,,,,,,,,,,,001,12,2019_Aug_27_1539,viewing,3.1.2,60.000048503318894,
north.png,stims/wedding-20.1a.mp4,stims/wedding-20.1b.mp4,stims/wedding-20.2b.mp4,stims/wedding-20.3b.mp4,stims/wedding-20.4b.mp4,stims/wedding-20.5.mp4,stimsday2details/newpainting17.png,stimsday2details/painting20.png,stimsday2details/newperson35.png,stimsday2details/couple20.png,stimsday2details/gift20.png,stimsday2details/new35.png,stimsday2details/n20.png,stimsday2details/cn20.png,stimsday2details/ct20.png,stimsday2details/t20.png,0,10,10,10,,,,,,,,,0,0,0,0,,,,,,,,,,,,,,,,,,,,,2.989616904873401,None,1487.6512550939806,1512.6509941793047,1512.667603366077,None,1521.6675629229285,None,1538.6673202491365,1561.6503316853195,1561.6669675330631,None,1585.6667908872478,None,,,,,,,,,,,,,,,,,,,,,,,,,,,,,,,,,,,,,,,,,,,,,,,,,,,,,,,,,,,,,,,,,,,,,,,,,,,,,001,12,2019_Aug_27_1539,viewing,3.1.2,60.000048503318894,
north.png,stims/wedding-20.1a.mp4,stims/wedding-20.1b.mp4,stims/wedding-20.2b.mp4,stims/wedding-20.3b.mp4,stims/wedding-20.4b.mp4,stims/wedding-20.5.mp4,stimsday2details/newpainting17.png,stimsday2details/painting20.png,stimsday2details/newperson35.png,stimsday2details/couple20.png,stimsday2details/gift20.png,stimsday2details/new35.png,stimsday2details/n20.png,stimsday2details/cn20.png,stimsday2details/ct20.png,stimsday2details/t20.png,0,10,10,10,,,,,,,,,,,,,0,0,0,0,,,,,,,,,,,,,,,,,,,,,,,,,,,,,,,None,None,None,None,None,None,None,None,None,None,None,None,None,None,None,None,None,None,None,,None,None,None,,None,None,,,,,,,,,,,,,,,,,,,,,,,,,,,,,,,,,,,,,,,,,,,,,,,,,,,001,12,2019_Aug_27_1539,viewing,3.1.2,60.000048503318894,
north.png,stims/wedding-20.1a.mp4,stims/wedding-20.1b.mp4,stims/wedding-20.2b.mp4,stims/wedding-20.3b.mp4,stims/wedding-20.4b.mp4,stims/wedding-20.5.mp4,stimsday2details/newpainting17.png,stimsday2details/painting20.png,stimsday2details/newperson35.png,stimsday2details/couple20.png,stimsday2details/gift20.png,stimsday2details/new35.png,stimsday2details/n20.png,stimsday2details/cn20.png,stimsday2details/ct20.png,stimsday2details/t20.png,0,10,10,10,,,,,,,,,,,,,,,,,,,,,,,,,,,,,,,,,,,,,,,,,,,,,,,,,,,,,,,,,,,,,,,,,,,,,,,,,2.930872142314911e-05,None,1,0.8524982370436192,1608.9830480092205,None,1608.9830480092205,None,1608.9830480092205,None,1610.9663764103316,None,2,0.8688650955446064,1610.9663764103316,None,1610.9663764103316,None,1612.9663045401685,None,1612.9663045401685,None,2,0.8355958689935505,1612.9663045401685,None,2,1.2857422549277544,1614.9662797483616,None,1614.9662797483616,None,1614.9662797483616,None,1616.9662545323372,None,1616.9662545323372,None,1,0.7354473890736699,1616.9662545323372,None,1618.9663491952233,None,1618.9663491952233,None,1,0.4356909627094865,1618.9663491952233,None,001,12,2019_Aug_27_1539,viewing,3.1.2,60.000048503318894,
south.png,stims/wedding-22.1a.mp4,stims/wedding-22.1b.mp4,stims/wedding-22.2b.mp4,stims/wedding-22.3a.mp4,stims/wedding-22.4b.mp4,stims/wedding-22.5.mp4,stimsday2details/painting22.png,stimsday2details/newpainting18.png,stimsday2details/newperson36.png,stimsday2details/couple22.png,stimsday2details/gift22.png,stimsday2details/new36.png,stimsday2details/cn22.png,stimsday2details/n22.png,stimsday2details/t22.png,stimsday2details/ct22.png,0,11,11,11,0,0,0,0,,,,,,,,,,,,,,,,,,,,,,,,,1620.966209684033,None,,,,,,,,,,,,,,,,,,,,,,,,,,,,,,,,,,,,,,,,,,,,,,,,,,,,,,,,,,,,,,,,,,,,,,,,,,,,,,,,,,,,,,,,,,,,,001,12,2019_Aug_27_1539,viewing,3.1.2,60.000048503318894,
south.png,stims/wedding-22.1a.mp4,stims/wedding-22.1b.mp4,stims/wedding-22.2b.mp4,stims/wedding-22.3a.mp4,stims/wedding-22.4b.mp4,stims/wedding-22.5.mp4,stimsday2details/painting22.png,stimsday2details/newpainting18.png,stimsday2details/newperson36.png,stimsday2details/couple22.png,stimsday2details/gift22.png,stimsday2details/new36.png,stimsday2details/cn22.png,stimsday2details/n22.png,stimsday2details/t22.png,stimsday2details/ct22.png,0,11,11,11,,,,,0,0,0,0,,,,,,,,,,,,,,,,,,,,,,,None,None,,,,,,,,,,,,,,,,,,,,,,,,,,,,,,,,,,,,,,,,,,,,,,,,,,,,,,,,,,,,,,,,,,,,,,,,,,,,,,,,,,,,,,,,,,,001,12,2019_Aug_27_1539,viewing,3.1.2,60.000048503318894,
south.png,stims/wedding-22.1a.mp4,stims/wedding-22.1b.mp4,stims/wedding-22.2b.mp4,stims/wedding-22.3a.mp4,stims/wedding-22.4b.mp4,stims/wedding-22.5.mp4,stimsday2details/painting22.png,stimsday2details/newpainting18.png,stimsday2details/newperson36.png,stimsday2details/couple22.png,stimsday2details/gift22.png,stimsday2details/new36.png,stimsday2details/cn22.png,stimsday2details/n22.png,stimsday2details/t22.png,stimsday2details/ct22.png,0,11,11,11,,,,,,,,,0,0,0,0,,,,,,,,,,,,,,,,,,,,,None,None,None,None,None,None,None,None,None,None,None,None,None,None,,,,,,,,,,,,,,,,,,,,,,,,,,,,,,,,,,,,,,,,,,,,,,,,,,,,,,,,,,,,,,,,,,,,,,,,,,,,,001,12,2019_Aug_27_1539,viewing,3.1.2,60.000048503318894,
south.png,stims/wedding-22.1a.mp4,stims/wedding-22.1b.mp4,stims/wedding-22.2b.mp4,stims/wedding-22.3a.mp4,stims/wedding-22.4b.mp4,stims/wedding-22.5.mp4,stimsday2details/painting22.png,stimsday2details/newpainting18.png,stimsday2details/newperson36.png,stimsday2details/couple22.png,stimsday2details/gift22.png,stimsday2details/new36.png,stimsday2details/cn22.png,stimsday2details/n22.png,stimsday2details/t22.png,stimsday2details/ct22.png,0,11,11,11,,,,,,,,,,,,,0,0,0,0,,,,,,,,,,,,,,,,,,,,,,,,,,,,,,,3.097068679984659,None,1635.2327479943633,1660.132416371256,1660.132416371256,None,1669.1323016090319,None,1686.1320400382392,1690.1320428163745,1690.1320428163745,None,1713.131745418068,1717.1316836541519,1717.1316836541519,None,1741.1480662212707,None,['2'],[2.6023227809928358],1685.1321372543462,1690.1320428163745,['1'],[2.08570771291852],1712.131787864957,1717.1316836541519,,,,,,,,,,,,,,,,,,,,,,,,,,,,,,,,,,,,,,,,,,,,,,,,,,,001,12,2019_Aug_27_1539,viewing,3.1.2,60.000048503318894,
south.png,stims/wedding-22.1a.mp4,stims/wedding-22.1b.mp4,stims/wedding-22.2b.mp4,stims/wedding-22.3a.mp4,stims/wedding-22.4b.mp4,stims/wedding-22.5.mp4,stimsday2details/painting22.png,stimsday2details/newpainting18.png,stimsday2details/newperson36.png,stimsday2details/couple22.png,stimsday2details/gift22.png,stimsday2details/new36.png,stimsday2details/cn22.png,stimsday2details/n22.png,stimsday2details/t22.png,stimsday2details/ct22.png,0,11,11,11,,,,,,,,,,,,,,,,,,,,,,,,,,,,,,,,,,,,,,,,,,,,,,,,,,,,,,,,,,,,,,,,,,,,,,,,,4.454003646969795e-05,None,2,1.0022568311542273,1761.9311326253228,None,1761.9311326253228,None,1761.9311326253228,None,1763.9144083582796,None,1,0.9191423868760467,1763.9144083582796,None,1763.9144083582796,None,1765.9143521473743,None,1765.9143521473743,None,2,0.7191448658704758,1765.9143521473743,None,1,1.1189414444379508,1767.9143269071355,None,1767.9143269071355,None,1767.9143269071355,None,1769.914313480258,None,1769.914313480258,None,1,0.7188281202688813,1769.914313480258,None,1771.9143394553103,None,1771.9143394553103,None,1,1.285524093080312,1771.9143394553103,None,001,12,2019_Aug_27_1539,viewing,3.1.2,60.000048503318894,
