condsFile,northOrSouth,stimFile1a,stimFile1b,stimFile2,stimFile3,stimFile4,stimFile5,QeggPainting1,Qcharacter1,Qgift1,QeggPainting2,Qcharacter2,Qgift2,Qname1,Qtheme1,Qname2,Qtheme2,block.thisRepN,block.thisTrialN,block.thisN,block.thisIndex,trials.thisRepN,trials.thisTrialN,trials.thisN,trials.thisIndex,noQtrials.thisRepN,noQtrials.thisTrialN,noQtrials.thisN,noQtrials.thisIndex,Qtrials.thisRepN,Qtrials.thisTrialN,Qtrials.thisN,Qtrials.thisIndex,text.started,text.stopped,prep_trigger.keys,prep_trigger.rt,prep_trigger.started,prep_trigger.stopped,waiting.started,waiting.stopped,trigger.keys,trigger.rt,trigger.started,trigger.stopped,image_3.started,image_3.stopped,trialNoQs.started,trialNoQs.stopped,vid1a.started,vid1a.stopped,vid1b.started,vid1b.stopped,vid2.started,vid2.stopped,vid3.started,vid3.stopped,vid4.started,vid4.stopped,vid5.started,vid5.stopped,ISI2.started,ISI2.stopped,vid1a_q.started,vid1a_q.stopped,vid1b_q.started,vid1b_q.stopped,vid2_q.started,vid2_q.stopped,l2q.started,l2q.stopped,vid3_q.started,vid3_q.stopped,l3q.started,l3q.stopped,vid4_q.started,vid4_q.stopped,vid5_q.started,vid5_q.stopped,key_resp_2.keys,key_resp_2.rt,key_resp_2.started,key_resp_2.stopped,key_resp_3.keys,key_resp_3.rt,key_resp_3.started,key_resp_3.stopped,ISI7.started,ISI7.stopped,nameQresp.keys,nameQresp.rt,nameQresp.started,nameQresp.stopped,nameQ1.started,nameQ1.stopped,nameQ2.started,nameQ2.stopped,eggPainting1.started,eggPainting1.stopped,eggPaintingQresp.keys,eggPaintingQresp.rt,eggPaintingQresp.started,eggPaintingQresp.stopped,eggPainting2.started,eggPainting2.stopped,character1.started,character1.stopped,character2.started,character2.stopped,Qcharacter.keys,Qcharacter.rt,Qcharacter.started,Qcharacter.stopped,themeQresp.keys,themeQresp.rt,themeQresp.started,themeQresp.stopped,themeQ1.started,themeQ1.stopped,themeQ2.started,themeQ2.stopped,gift1.started,gift1.stopped,gift2.started,gift2.stopped,giftQresp.keys,giftQresp.rt,giftQresp.started,giftQresp.stopped,northorsouth1.started,northorsouth1.stopped,northOrSouthQ.keys,northOrSouthQ.rt,northOrSouthQ.started,northOrSouthQ.stopped,northorsouth2.started,northorsouth2.stopped,session,participant,date,expName,psychopyVersion,frameRate,
,,,,,,,,,,,,,,,,,,,,,,,,,,,,,,,,,,8.036250062985346,None,g,2.1548309299978428,8.036250062985346,None,,,,,,,,,,,,,,,,,,,,,,,,,,,,,,,,,,,,,,,,,,,,,,,,,,,,,,,,,,,,,,,,,,,,,,,,,,,,,,,,,,,,,,,,,,,,,,,,,,,001,6,2019_Jul_17_1158,Block1,3.1.2,59.9972398964118,
,,,,,,,,,,,,,,,,,,,,,,,,,,,,,,,,,,,,,,,,10.202369934995659,None,equal,17.843602619017474,10.202369934995659,None,,,,,,,,,,,,,,,,,,,,,,,,,,,,,,,,,,,,,,,,,,,,,,,,,,,,,,,,,,,,,,,,,,,,,,,,,,,,,,,,,,,,,,,,,,,,,001,6,2019_Jul_17_1158,Block1,3.1.2,59.9972398964118,
videoBlock_schemaN_pathB_2.csv,north.png,stims/wedding-8.1a.mp4,stims/wedding-8.1b.mp4,stims/wedding-8.2b.mp4,stims/wedding-8.3b.mp4,stims/wedding-8.4b.mp4,stims/wedding-8.5.mp4,stimsday1details/newpainting2.png,stimsday1details/newperson14.png,stimsday1details/new14.png,stimsday1details/painting8.png,stimsday1details/couple8.png,stimsday1details/gift8.png,stimsday1details/n8.png,stimsday1details/t8.png,stimsday1details/cn8.png,stimsday1details/ct8.png,0,0,0,4,0,0,0,0,0,0,0,0,,,,,,,,,,,,,,,,,28.086096120008733,None,None,None,None,None,None,None,None,None,None,None,None,None,None,None,,,,,,,,,,,,,,,,,,,,,,,,,,,,,,,,,,,,,,,,,,,,,,,,,,,,,,,,,,,,,,,,,,,,,,,,,,,,,001,6,2019_Jul_17_1158,Block1,3.1.2,59.9972398964118,
videoBlock_schemaN_pathB_2.csv,north.png,stims/wedding-8.1a.mp4,stims/wedding-8.1b.mp4,stims/wedding-8.2b.mp4,stims/wedding-8.3b.mp4,stims/wedding-8.4b.mp4,stims/wedding-8.5.mp4,stimsday1details/newpainting2.png,stimsday1details/newperson14.png,stimsday1details/new14.png,stimsday1details/painting8.png,stimsday1details/couple8.png,stimsday1details/gift8.png,stimsday1details/n8.png,stimsday1details/t8.png,stimsday1details/cn8.png,stimsday1details/ct8.png,0,0,0,4,0,0,0,0,,,,,0,0,0,0,,,,,,,,,,,,,,,,,,,,,,,,,,,,,2.539669516001595,None,40.352047192980535,54.805902013002196,54.818521598004736,63.802485891006654,63.81926230000681,None,80.82298570798594,84.80643200100167,84.81908557700808,None,107.82251704999362,111.80108438199386,111.81753024700447,None,135.81849632100784,None,['1'],[2.101033766986802],79.81905954398098,84.80643200100167,['2'],[3.917308698000852],106.82330167898908,111.80108438199386,,,,,,,,,,,,,,,,,,,,,,,,,,,,,,,,,,,,,,,,,,,,,,,,,,,001,6,2019_Jul_17_1158,Block1,3.1.2,59.9972398964118,
videoBlock_schemaN_pathB_2.csv,north.png,stims/wedding-8.1a.mp4,stims/wedding-8.1b.mp4,stims/wedding-8.2b.mp4,stims/wedding-8.3b.mp4,stims/wedding-8.4b.mp4,stims/wedding-8.5.mp4,stimsday1details/newpainting2.png,stimsday1details/newperson14.png,stimsday1details/new14.png,stimsday1details/painting8.png,stimsday1details/couple8.png,stimsday1details/gift8.png,stimsday1details/n8.png,stimsday1details/t8.png,stimsday1details/cn8.png,stimsday1details/ct8.png,0,0,0,4,0,0,0,0,,,,,,,,,,,,,,,,,,,,,,,,,,,,,,,,,,,,,,,,,,,,,,,,,,,,,,,,,,,,,,,2.03629897441715e-05,None,1,0.6854135670000687,150.2010149479902,None,150.2010149479902,None,150.2010149479902,None,152.18455648998497,None,2,0.8354261240165215,152.18455648998497,None,152.18455648998497,None,154.18940803900477,None,154.18940803900477,None,2,0.8299514059908688,154.18940803900477,None,1,0.8514370120246895,156.1844038849813,None,156.1844038849813,None,156.1844038849813,None,158.18907448498067,None,158.18907448498067,None,2,0.7798774129769299,158.18907448498067,None,160.18811597299646,None,1,0.8025317240098957,160.18811597299646,None,160.18811597299646,None,001,6,2019_Jul_17_1158,Block1,3.1.2,59.9972398964118,
videoBlock_schemaN_pathA_2.csv,north.png,stims/wedding-5.1a.mp4,stims/wedding-5.1b.mp4,stims/wedding-5.2a.mp4,stims/wedding-5.3a.mp4,stims/wedding-5.4a.mp4,stims/wedding-5.5.mp4,stimsday1details/newegg2.png,stimsday1details/couple5.png,stimsday1details/gift5.png,stimsday1details/egg5.png,stimsday1details/newperson2.png,stimsday1details/new2.png,stimsday1details/cn5.png,stimsday1details/ct5.png,stimsday1details/n5.png,stimsday1details/t5.png,0,1,1,1,0,0,0,0,0,0,0,0,,,,,,,,,,,,,,,,,162.3674656600051,None,2.7905397189897485,None,172.16694333800115,186.3666526239831,186.38454142099363,195.36653728000238,195.38437636298477,212.3713326159923,212.38431747700088,235.3701861309819,235.3839775910019,259.3683594070026,259.3841322719818,None,,,,,,,,,,,,,,,,,,,,,,,,,,,,,,,,,,,,,,,,,,,,,,,,,,,,,,,,,,,,,,,,,,,,,,,,,,,,,001,6,2019_Jul_17_1158,Block1,3.1.2,59.9972398964118,
videoBlock_schemaN_pathA_2.csv,north.png,stims/wedding-5.1a.mp4,stims/wedding-5.1b.mp4,stims/wedding-5.2a.mp4,stims/wedding-5.3a.mp4,stims/wedding-5.4a.mp4,stims/wedding-5.5.mp4,stimsday1details/newegg2.png,stimsday1details/couple5.png,stimsday1details/gift5.png,stimsday1details/egg5.png,stimsday1details/newperson2.png,stimsday1details/new2.png,stimsday1details/cn5.png,stimsday1details/ct5.png,stimsday1details/n5.png,stimsday1details/t5.png,0,1,1,1,0,0,0,0,,,,,0,0,0,0,,,,,,,,,,,,,,,,,,,,,,,,,,,,,None,None,None,None,None,None,None,None,None,None,None,None,None,None,None,None,None,None,None,,None,None,None,,None,None,,,,,,,,,,,,,,,,,,,,,,,,,,,,,,,,,,,,,,,,,,,,,,,,,,,001,6,2019_Jul_17_1158,Block1,3.1.2,59.9972398964118,
videoBlock_schemaN_pathA_2.csv,north.png,stims/wedding-5.1a.mp4,stims/wedding-5.1b.mp4,stims/wedding-5.2a.mp4,stims/wedding-5.3a.mp4,stims/wedding-5.4a.mp4,stims/wedding-5.5.mp4,stimsday1details/newegg2.png,stimsday1details/couple5.png,stimsday1details/gift5.png,stimsday1details/egg5.png,stimsday1details/newperson2.png,stimsday1details/new2.png,stimsday1details/cn5.png,stimsday1details/ct5.png,stimsday1details/n5.png,stimsday1details/t5.png,0,1,1,1,0,0,0,0,,,,,,,,,,,,,,,,,,,,,,,,,,,,,,,,,,,,,,,,,,,,,,,,,,,,,,,,,,,,,,,3.1217001378536224e-05,None,2,1.185152181016747,277.2328506799822,None,277.2328506799822,None,277.2328506799822,None,279.2153337149939,None,2,0.7520860799995717,279.2153337149939,None,279.2153337149939,None,281.21641804798855,None,281.21641804798855,None,1,0.7510712439834606,281.21641804798855,None,2,0.8813800839998294,283.22028852498624,None,283.22028852498624,None,283.22028852498624,None,285.2165044120047,None,285.2165044120047,None,1,0.7008898649946786,285.2165044120047,None,287.2161968629807,None,1,0.7399627160048112,287.2161968629807,None,287.2161968629807,None,001,6,2019_Jul_17_1158,Block1,3.1.2,59.9972398964118,
videoBlock_schemaN_pathB_3.csv,north.png,stims/wedding-11.1a.mp4,stims/wedding-11.1b.mp4,stims/wedding-11.2b.mp4,stims/wedding-11.3b.mp4,stims/wedding-11.4b.mp4,stims/wedding-11.5.mp4,stimsday1details/painting11.png,stimsday1details/couple11.png,stimsday1details/gift11.png,stimsday1details/newpainting3.png,stimsday1details/newperson15.png,stimsday1details/new15.png,stimsday1details/cn11.png,stimsday1details/ct11.png,stimsday1details/n11.png,stimsday1details/t11.png,0,2,2,5,0,0,0,0,0,0,0,0,,,,,,,,,,,,,,,,,289.450107673998,None,2.7819785460014828,None,299.2160753629869,313.4377060580009,313.4495600469818,None,322.44913067799644,None,339.4494505189941,362.431985756004,362.44804237698554,None,386.4483101730002,None,,,,,,,,,,,,,,,,,,,,,,,,,,,,,,,,,,,,,,,,,,,,,,,,,,,,,,,,,,,,,,,,,,,,,,,,,,,,,001,6,2019_Jul_17_1158,Block1,3.1.2,59.9972398964118,
videoBlock_schemaN_pathB_3.csv,north.png,stims/wedding-11.1a.mp4,stims/wedding-11.1b.mp4,stims/wedding-11.2b.mp4,stims/wedding-11.3b.mp4,stims/wedding-11.4b.mp4,stims/wedding-11.5.mp4,stimsday1details/painting11.png,stimsday1details/couple11.png,stimsday1details/gift11.png,stimsday1details/newpainting3.png,stimsday1details/newperson15.png,stimsday1details/new15.png,stimsday1details/cn11.png,stimsday1details/ct11.png,stimsday1details/n11.png,stimsday1details/t11.png,0,2,2,5,0,0,0,0,,,,,0,0,0,0,,,,,,,,,,,,,,,,,,,,,,,,,,,,,None,None,None,None,None,None,None,None,None,None,None,None,None,None,None,None,None,None,None,,None,None,None,,None,None,,,,,,,,,,,,,,,,,,,,,,,,,,,,,,,,,,,,,,,,,,,,,,,,,,,001,6,2019_Jul_17_1158,Block1,3.1.2,59.9972398964118,
videoBlock_schemaN_pathB_3.csv,north.png,stims/wedding-11.1a.mp4,stims/wedding-11.1b.mp4,stims/wedding-11.2b.mp4,stims/wedding-11.3b.mp4,stims/wedding-11.4b.mp4,stims/wedding-11.5.mp4,stimsday1details/painting11.png,stimsday1details/couple11.png,stimsday1details/gift11.png,stimsday1details/newpainting3.png,stimsday1details/newperson15.png,stimsday1details/new15.png,stimsday1details/cn11.png,stimsday1details/ct11.png,stimsday1details/n11.png,stimsday1details/t11.png,0,2,2,5,0,0,0,0,,,,,,,,,,,,,,,,,,,,,,,,,,,,,,,,,,,,,,,,,,,,,,,,,,,,,,,,,,,,,,,3.385101445019245e-05,None,2,0.6978423710097559,404.40158173799864,None,404.40158173799864,None,404.40158173799864,None,406.39779317798093,None,1,0.8574081400001887,406.39779317798093,None,406.39779317798093,None,408.3974857869907,None,408.3974857869907,None,1,0.7071688669966534,408.3974857869907,None,2,0.9191672789747827,410.40138904500054,None,410.40138904500054,None,410.40138904500054,None,412.4055243289913,None,412.4055243289913,None,1,0.7316179719928186,412.4055243289913,None,414.406626823009,None,1,0.7514947979943827,414.406626823009,None,414.406626823009,None,001,6,2019_Jul_17_1158,Block1,3.1.2,59.9972398964118,
videoBlock_schemaN_pathB_1.csv,north.png,stims/wedding-4.1a.mp4,stims/wedding-4.1b.mp4,stims/wedding-4.2b.mp4,stims/wedding-4.3b.mp4,stims/wedding-4.4b.mp4,stims/wedding-4.5.mp4,stimsday1details/newpainting1.png,stimsday1details/newperson13.png,stimsday1details/gift4.png,stimsday1details/painting4.png,stimsday1details/couple4.png,stimsday1details/new13.png,stimsday1details/n4.png,stimsday1details/ct4.png,stimsday1details/cn4.png,stimsday1details/t4.png,0,3,3,3,0,0,0,0,0,0,0,0,,,,,,,,,,,,,,,,,416.647470291995,None,2.692413595999824,None,426.3476549650077,440.6515779180045,440.664354448003,None,449.6647960949922,None,466.6674964299891,489.65240494100726,489.66414439099026,None,513.6642086549837,None,,,,,,,,,,,,,,,,,,,,,,,,,,,,,,,,,,,,,,,,,,,,,,,,,,,,,,,,,,,,,,,,,,,,,,,,,,,,,001,6,2019_Jul_17_1158,Block1,3.1.2,59.9972398964118,
videoBlock_schemaN_pathB_1.csv,north.png,stims/wedding-4.1a.mp4,stims/wedding-4.1b.mp4,stims/wedding-4.2b.mp4,stims/wedding-4.3b.mp4,stims/wedding-4.4b.mp4,stims/wedding-4.5.mp4,stimsday1details/newpainting1.png,stimsday1details/newperson13.png,stimsday1details/gift4.png,stimsday1details/painting4.png,stimsday1details/couple4.png,stimsday1details/new13.png,stimsday1details/n4.png,stimsday1details/ct4.png,stimsday1details/cn4.png,stimsday1details/t4.png,0,3,3,3,0,0,0,0,,,,,0,0,0,0,,,,,,,,,,,,,,,,,,,,,,,,,,,,,None,None,None,None,None,None,None,None,None,None,None,None,None,None,None,None,None,None,None,,None,None,None,,None,None,,,,,,,,,,,,,,,,,,,,,,,,,,,,,,,,,,,,,,,,,,,,,,,,,,,001,6,2019_Jul_17_1158,Block1,3.1.2,59.9972398964118,
videoBlock_schemaN_pathB_1.csv,north.png,stims/wedding-4.1a.mp4,stims/wedding-4.1b.mp4,stims/wedding-4.2b.mp4,stims/wedding-4.3b.mp4,stims/wedding-4.4b.mp4,stims/wedding-4.5.mp4,stimsday1details/newpainting1.png,stimsday1details/newperson13.png,stimsday1details/gift4.png,stimsday1details/painting4.png,stimsday1details/couple4.png,stimsday1details/new13.png,stimsday1details/n4.png,stimsday1details/ct4.png,stimsday1details/cn4.png,stimsday1details/t4.png,0,3,3,3,0,0,0,0,,,,,,,,,,,,,,,,,,,,,,,,,,,,,,,,,,,,,,,,,,,,,,,,,,,,,,,,,,,,,,,3.2584997825324535e-05,None,1,1.118375542020658,531.2135605869989,None,531.2135605869989,None,531.2135605869989,None,533.2141519500001,None,2,0.7682127819862217,533.2141519500001,None,533.2141519500001,None,535.2182636969956,None,535.2182636969956,None,2,0.9310514710086863,535.2182636969956,None,2,1.167665917018894,537.2136482759961,None,537.2136482759961,None,537.2136482759961,None,539.2131247769867,None,539.2131247769867,None,1,0.7693163499934599,539.2131247769867,None,541.2174119630072,None,1,0.6857549359847326,541.2174119630072,None,541.2174119630072,None,001,6,2019_Jul_17_1158,Block1,3.1.2,59.9972398964118,
videoBlock_schemaN_pathA_1.csv,north.png,stims/wedding-3.1a.mp4,stims/wedding-3.1b.mp4,stims/wedding-3.2a.mp4,stims/wedding-3.3a.mp4,stims/wedding-3.4a.mp4,stims/wedding-3.5.mp4,stimsday1details/egg3.png,stimsday1details/couple3.png,stimsday1details/new1.png,stimsday1details/newegg1.png,stimsday1details/newperson1.png,stimsday1details/gift3.png,stimsday1details/cn3.png,stimsday1details/t3.png,stimsday1details/n3.png,stimsday1details/ct3.png,0,4,4,0,0,0,0,0,0,0,0,0,,,,,,,,,,,,,,,,,543.496999007999,None,2.658267421007622,None,553.146397443983,567.4834993910044,567.4965122529829,None,576.4954784529982,593.4782819759857,593.4950192359975,616.4780147639976,616.4961293950037,None,640.4962804619863,None,,,,,,,,,,,,,,,,,,,,,,,,,,,,,,,,,,,,,,,,,,,,,,,,,,,,,,,,,,,,,,,,,,,,,,,,,,,,,001,6,2019_Jul_17_1158,Block1,3.1.2,59.9972398964118,
videoBlock_schemaN_pathA_1.csv,north.png,stims/wedding-3.1a.mp4,stims/wedding-3.1b.mp4,stims/wedding-3.2a.mp4,stims/wedding-3.3a.mp4,stims/wedding-3.4a.mp4,stims/wedding-3.5.mp4,stimsday1details/egg3.png,stimsday1details/couple3.png,stimsday1details/new1.png,stimsday1details/newegg1.png,stimsday1details/newperson1.png,stimsday1details/gift3.png,stimsday1details/cn3.png,stimsday1details/t3.png,stimsday1details/n3.png,stimsday1details/ct3.png,0,4,4,0,0,0,0,0,,,,,0,0,0,0,,,,,,,,,,,,,,,,,,,,,,,,,,,,,None,None,None,None,None,None,None,None,None,None,None,None,None,None,None,None,None,None,None,,None,None,None,,None,None,,,,,,,,,,,,,,,,,,,,,,,,,,,,,,,,,,,,,,,,,,,,,,,,,,,001,6,2019_Jul_17_1158,Block1,3.1.2,59.9972398964118,
videoBlock_schemaN_pathA_1.csv,north.png,stims/wedding-3.1a.mp4,stims/wedding-3.1b.mp4,stims/wedding-3.2a.mp4,stims/wedding-3.3a.mp4,stims/wedding-3.4a.mp4,stims/wedding-3.5.mp4,stimsday1details/egg3.png,stimsday1details/couple3.png,stimsday1details/new1.png,stimsday1details/newegg1.png,stimsday1details/newperson1.png,stimsday1details/gift3.png,stimsday1details/cn3.png,stimsday1details/t3.png,stimsday1details/n3.png,stimsday1details/ct3.png,0,4,4,0,0,0,0,0,,,,,,,,,,,,,,,,,,,,,,,,,,,,,,,,,,,,,,,,,,,,,,,,,,,,,,,,,,,,,,,3.883999306708574e-05,None,2,0.9730137290025596,657.8776970589824,None,657.8776970589824,None,657.8776970589824,None,659.8660038620001,None,1,0.8810403110110201,659.8660038620001,None,659.8660038620001,None,661.8615593099967,None,661.8615593099967,None,1,1.216245325980708,661.8615593099967,None,1,1.352442973991856,663.8607491870061,None,663.8607491870061,None,663.8607491870061,None,665.8619131720043,None,665.8619131720043,None,2,1.0383813490043394,665.8619131720043,None,667.8612543540075,None,1,0.7193663380166981,667.8612543540075,None,667.8612543540075,None,001,6,2019_Jul_17_1158,Block1,3.1.2,59.9972398964118,
videoBlock_schemaN_pathA_3.csv,north.png,stims/wedding-9.1a.mp4,stims/wedding-9.1b.mp4,stims/wedding-9.2a.mp4,stims/wedding-9.3a.mp4,stims/wedding-9.4a.mp4,stims/wedding-9.5.mp4,stimsday1details/newegg3.png,stimsday1details/newperson3.png,stimsday1details/gift9.png,stimsday1details/egg9.png,stimsday1details/couple9.png,stimsday1details/new3.png,stimsday1details/n9.png,stimsday1details/t9.png,stimsday1details/cn9.png,stimsday1details/ct9.png,0,5,5,2,0,0,0,0,0,0,0,0,,,,,,,,,,,,,,,,,670.1779512219946,None,None,None,None,None,None,None,None,None,None,None,None,None,None,None,,,,,,,,,,,,,,,,,,,,,,,,,,,,,,,,,,,,,,,,,,,,,,,,,,,,,,,,,,,,,,,,,,,,,,,,,,,,,001,6,2019_Jul_17_1158,Block1,3.1.2,59.9972398964118,
videoBlock_schemaN_pathA_3.csv,north.png,stims/wedding-9.1a.mp4,stims/wedding-9.1b.mp4,stims/wedding-9.2a.mp4,stims/wedding-9.3a.mp4,stims/wedding-9.4a.mp4,stims/wedding-9.5.mp4,stimsday1details/newegg3.png,stimsday1details/newperson3.png,stimsday1details/gift9.png,stimsday1details/egg9.png,stimsday1details/couple9.png,stimsday1details/new3.png,stimsday1details/n9.png,stimsday1details/t9.png,stimsday1details/cn9.png,stimsday1details/ct9.png,0,5,5,2,0,0,0,0,,,,,0,0,0,0,,,,,,,,,,,,,,,,,,,,,,,,,,,,,2.7424066920066252,None,682.8783214739815,697.1437533540011,697.1437533540011,706.1445187899808,706.1445187899808,723.1770943570009,723.1770943570009,727.126932662999,727.1433460499975,None,750.1435367770027,754.1474756459938,754.1605208039982,778.1470642600034,778.1606511609862,None,['1'],[3.7019326119916514],722.1437176399922,727.126932662999,['2'],[2.5964699320029467],749.165338486986,754.1474756459938,,,,,,,,,,,,,,,,,,,,,,,,,,,,,,,,,,,,,,,,,,,,,,,,,,,001,6,2019_Jul_17_1158,Block1,3.1.2,59.9972398964118,
videoBlock_schemaN_pathA_3.csv,north.png,stims/wedding-9.1a.mp4,stims/wedding-9.1b.mp4,stims/wedding-9.2a.mp4,stims/wedding-9.3a.mp4,stims/wedding-9.4a.mp4,stims/wedding-9.5.mp4,stimsday1details/newegg3.png,stimsday1details/newperson3.png,stimsday1details/gift9.png,stimsday1details/egg9.png,stimsday1details/couple9.png,stimsday1details/new3.png,stimsday1details/n9.png,stimsday1details/t9.png,stimsday1details/cn9.png,stimsday1details/ct9.png,0,5,5,2,0,0,0,0,,,,,,,,,,,,,,,,,,,,,,,,,,,,,,,,,,,,,,,,,,,,,,,,,,,,,,,,,,,,,,,3.139598993584514e-05,None,1,1.0791788669885136,792.9824787440011,None,792.9824787440011,None,792.9824787440011,None,794.9766797059856,None,2,0.8011696260073222,794.9766797059856,None,794.9766797059856,None,796.9771648239985,None,796.9771648239985,None,2,1.0425989690120332,796.9771648239985,None,1,1.251317198999459,798.981340822007,None,798.981340822007,None,798.981340822007,None,800.9849070849887,None,800.9849070849887,None,1,0.8192267400154378,800.9849070849887,None,802.976128262002,None,1,0.7024714290164411,802.976128262002,None,802.976128262002,None,001,6,2019_Jul_17_1158,Block1,3.1.2,59.9972398964118,
