northOrSouth,stimFile1a,stimFile1b,stimFile2,stimFile3,stimFile4,stimFile5,Qeggpainting1,Qeggpainting2,Qcharacter1,Qcharacter2,Qgift1,Qgift2,Qname1,Qname2,Qtheme1,Qtheme2,trials.thisRepN,trials.thisTrialN,trials.thisN,trials.thisIndex,South.thisRepN,South.thisTrialN,South.thisN,South.thisIndex,North.thisRepN,North.thisTrialN,North.thisN,North.thisIndex,noQtrials.thisRepN,noQtrials.thisTrialN,noQtrials.thisN,noQtrials.thisIndex,Qtrials.thisRepN,Qtrials.thisTrialN,Qtrials.thisN,Qtrials.thisIndex,text.started,text.stopped,prep_trigger.keys,prep_trigger.rt,prep_trigger.started,prep_trigger.stopped,waiting.started,waiting.stopped,trigger.keys,trigger.rt,trigger.started,trigger.stopped,southCueImage.started,southCueImage.stopped,northCueImage.started,northCueImage.stopped,trialNoQs.started,trialNoQs.stopped,vid1a.started,vid1a.stopped,vid1b.started,vid1b.stopped,vid2.started,vid2.stopped,vid3.started,vid3.stopped,vid4.started,vid4.stopped,vid5.started,vid5.stopped,ISI2.started,ISI2.stopped,vid1a_q.started,vid1a_q.stopped,vid1b_q.started,vid1b_q.stopped,vid2_q.started,vid2_q.stopped,l2q.started,l2q.stopped,vid3_q.started,vid3_q.stopped,l3q.started,l3q.stopped,vid4_q.started,vid4_q.stopped,vid5_q.started,vid5_q.stopped,key_resp_2.keys,key_resp_2.rt,key_resp_2.started,key_resp_2.stopped,key_resp_3.keys,key_resp_3.rt,key_resp_3.started,key_resp_3.stopped,ISI7.started,ISI7.stopped,nameQresp.keys,nameQresp.rt,nameQresp.started,nameQresp.stopped,nameQ1.started,nameQ1.stopped,nameQ2.started,nameQ2.stopped,eggPainting1.started,eggPainting1.stopped,eggPaintingQresp.keys,eggPaintingQresp.rt,eggPaintingQresp.started,eggPaintingQresp.stopped,eggPainting2.started,eggPainting2.stopped,character1.started,character1.stopped,character2.started,character2.stopped,Qcharacter.keys,Qcharacter.rt,Qcharacter.started,Qcharacter.stopped,themeQresp.keys,themeQresp.rt,themeQresp.started,themeQresp.stopped,themeQ1.started,themeQ1.stopped,themeQ2.started,themeQ2.stopped,gift1.started,gift1.stopped,gift2.started,gift2.stopped,giftQresp.keys,giftQresp.rt,giftQresp.started,giftQresp.stopped,northorsouth1.started,northorsouth1.stopped,northorsouth2.started,northorsouth2.stopped,northOrSouthQ.keys,northOrSouthQ.rt,northOrSouthQ.started,northOrSouthQ.stopped,session,participant,date,expName,psychopyVersion,frameRate,
,,,,,,,,,,,,,,,,,,,,,,,,,,,,,,,,,,,,,6.450100671965629,None,g,0.5035871430300176,6.450100671965629,None,,,,,,,,,,,,,,,,,,,,,,,,,,,,,,,,,,,,,,,,,,,,,,,,,,,,,,,,,,,,,,,,,,,,,,,,,,,,,,,,,,,,,,,,,,,,,,,,,,,,,001,26,2019_Nov_12_1537,viewing,3.1.2,60.07964310456286,
,,,,,,,,,,,,,,,,,,,,,,,,,,,,,,,,,,,,,,,,,,,6.966921146959066,None,equal,21.41560346703045,6.966921146959066,None,,,,,,,,,,,,,,,,,,,,,,,,,,,,,,,,,,,,,,,,,,,,,,,,,,,,,,,,,,,,,,,,,,,,,,,,,,,,,,,,,,,,,,,,,,,,,,,001,26,2019_Nov_12_1537,viewing,3.1.2,60.07964310456286,
south.png,stims/wedding-22.1a.mp4,stims/wedding-22.1b.mp4,stims/wedding-22.2b.mp4,stims/wedding-22.3a.mp4,stims/wedding-22.4b.mp4,stims/wedding-22.5.mp4,stimsday2details/newpainting13.png,stimsday2details/painting22.png,stimsday2details/newperson25.png,stimsday2details/couple22.png,stimsday2details/gift22.png,stimsday2details/new25.png,stimsday2details/n22.png,stimsday2details/cn22.png,stimsday2details/t22.png,stimsday2details/ct22.png,0,0,0,0,0,0,0,0,,,,,,,,,,,,,,,,,,,,,,,,,28.49893650179729,None,,,,,,,,,,,,,,,,,,,,,,,,,,,,,,,,,,,,,,,,,,,,,,,,,,,,,,,,,,,,,,,,,,,,,,,,,,,,,,,,,,,,,,,,,,,,,001,26,2019_Nov_12_1537,viewing,3.1.2,60.07964310456286,
south.png,stims/wedding-22.1a.mp4,stims/wedding-22.1b.mp4,stims/wedding-22.2b.mp4,stims/wedding-22.3a.mp4,stims/wedding-22.4b.mp4,stims/wedding-22.5.mp4,stimsday2details/newpainting13.png,stimsday2details/painting22.png,stimsday2details/newperson25.png,stimsday2details/couple22.png,stimsday2details/gift22.png,stimsday2details/new25.png,stimsday2details/n22.png,stimsday2details/cn22.png,stimsday2details/t22.png,stimsday2details/ct22.png,0,0,0,0,,,,,0,0,0,0,,,,,,,,,,,,,,,,,,,,,,,None,None,,,,,,,,,,,,,,,,,,,,,,,,,,,,,,,,,,,,,,,,,,,,,,,,,,,,,,,,,,,,,,,,,,,,,,,,,,,,,,,,,,,,,,,,,,,001,26,2019_Nov_12_1537,viewing,3.1.2,60.07964310456286,
south.png,stims/wedding-22.1a.mp4,stims/wedding-22.1b.mp4,stims/wedding-22.2b.mp4,stims/wedding-22.3a.mp4,stims/wedding-22.4b.mp4,stims/wedding-22.5.mp4,stimsday2details/newpainting13.png,stimsday2details/painting22.png,stimsday2details/newperson25.png,stimsday2details/couple22.png,stimsday2details/gift22.png,stimsday2details/new25.png,stimsday2details/n22.png,stimsday2details/cn22.png,stimsday2details/t22.png,stimsday2details/ct22.png,0,0,0,0,,,,,,,,,0,0,0,0,,,,,,,,,,,,,,,,,,,,,None,None,None,None,None,None,None,None,None,None,None,None,None,None,,,,,,,,,,,,,,,,,,,,,,,,,,,,,,,,,,,,,,,,,,,,,,,,,,,,,,,,,,,,,,,,,,,,,,,,,,,,,001,26,2019_Nov_12_1537,viewing,3.1.2,60.07964310456286,
south.png,stims/wedding-22.1a.mp4,stims/wedding-22.1b.mp4,stims/wedding-22.2b.mp4,stims/wedding-22.3a.mp4,stims/wedding-22.4b.mp4,stims/wedding-22.5.mp4,stimsday2details/newpainting13.png,stimsday2details/painting22.png,stimsday2details/newperson25.png,stimsday2details/couple22.png,stimsday2details/gift22.png,stimsday2details/new25.png,stimsday2details/n22.png,stimsday2details/cn22.png,stimsday2details/t22.png,stimsday2details/ct22.png,0,0,0,0,,,,,,,,,,,,,0,0,0,0,,,,,,,,,,,,,,,,,,,,,,,,,,,,,,,2.832396207842976,None,42.08270450588316,67.24885443178937,67.24885443178937,None,76.24907145299949,None,93.26516211079434,97.25220379279926,97.26525371195748,120.2515573729761,120.26440821378492,124.25177150592208,124.26436916692182,None,148.2652231277898,None,['2'],[4.052171784918755],92.26566384988837,97.25220379279926,['2'],[2.1961249811574817],119.26878269086592,124.25177150592208,,,,,,,,,,,,,,,,,,,,,,,,,,,,,,,,,,,,,,,,,,,,,,,,,,,001,26,2019_Nov_12_1537,viewing,3.1.2,60.07964310456286,
south.png,stims/wedding-22.1a.mp4,stims/wedding-22.1b.mp4,stims/wedding-22.2b.mp4,stims/wedding-22.3a.mp4,stims/wedding-22.4b.mp4,stims/wedding-22.5.mp4,stimsday2details/newpainting13.png,stimsday2details/painting22.png,stimsday2details/newperson25.png,stimsday2details/couple22.png,stimsday2details/gift22.png,stimsday2details/new25.png,stimsday2details/n22.png,stimsday2details/cn22.png,stimsday2details/t22.png,stimsday2details/ct22.png,0,0,0,0,,,,,,,,,,,,,,,,,,,,,,,,,,,,,,,,,,,,,,,,,,,,,,,,,,,,,,,,,,,,,,,,,,,,,,,,,1.934915781021118e-05,None,1,1.1507467210758477,168.79790790192783,None,168.79790790192783,None,168.79790790192783,None,170.7974558689166,None,2,1.0862220218405128,170.7974558689166,None,170.7974558689166,None,172.79780966090038,None,172.79780966090038,None,2,0.7845986247994006,172.79780966090038,None,1,1.2017443641088903,174.80222618300468,None,174.80222618300468,None,174.80222618300468,None,176.80174844781868,None,176.80174844781868,None,1,0.7526497489307076,176.80174844781868,None,178.79710156982765,None,178.79710156982765,None,2,0.6501751060131937,178.79710156982765,None,001,26,2019_Nov_12_1537,viewing,3.1.2,60.07964310456286,
north.png,stims/wedding-38.1a.mp4,stims/wedding-38.1b.mp4,stims/wedding-38.2b.mp4,stims/wedding-38.3b.mp4,stims/wedding-38.4b.mp4,stims/wedding-38.5.mp4,stimsday2details/newpainting14.png,stimsday2details/painting38.png,stimsday2details/couple38.png,stimsday2details/newperson26.png,stimsday2details/new26.png,stimsday2details/gift38.png,stimsday2details/cn38.png,stimsday2details/n38.png,stimsday2details/t38.png,stimsday2details/ct38.png,0,1,1,1,0,0,0,0,,,,,,,,,,,,,,,,,,,,,,,,,None,None,,,,,,,,,,,,,,,,,,,,,,,,,,,,,,,,,,,,,,,,,,,,,,,,,,,,,,,,,,,,,,,,,,,,,,,,,,,,,,,,,,,,,,,,,,,,,001,26,2019_Nov_12_1537,viewing,3.1.2,60.07964310456286,
north.png,stims/wedding-38.1a.mp4,stims/wedding-38.1b.mp4,stims/wedding-38.2b.mp4,stims/wedding-38.3b.mp4,stims/wedding-38.4b.mp4,stims/wedding-38.5.mp4,stimsday2details/newpainting14.png,stimsday2details/painting38.png,stimsday2details/couple38.png,stimsday2details/newperson26.png,stimsday2details/new26.png,stimsday2details/gift38.png,stimsday2details/cn38.png,stimsday2details/n38.png,stimsday2details/t38.png,stimsday2details/ct38.png,0,1,1,1,,,,,0,0,0,0,,,,,,,,,,,,,,,,,,,,,,,180.83525133389048,None,,,,,,,,,,,,,,,,,,,,,,,,,,,,,,,,,,,,,,,,,,,,,,,,,,,,,,,,,,,,,,,,,,,,,,,,,,,,,,,,,,,,,,,,,,,001,26,2019_Nov_12_1537,viewing,3.1.2,60.07964310456286,
north.png,stims/wedding-38.1a.mp4,stims/wedding-38.1b.mp4,stims/wedding-38.2b.mp4,stims/wedding-38.3b.mp4,stims/wedding-38.4b.mp4,stims/wedding-38.5.mp4,stimsday2details/newpainting14.png,stimsday2details/painting38.png,stimsday2details/couple38.png,stimsday2details/newperson26.png,stimsday2details/new26.png,stimsday2details/gift38.png,stimsday2details/cn38.png,stimsday2details/n38.png,stimsday2details/t38.png,stimsday2details/ct38.png,0,1,1,1,,,,,,,,,0,0,0,0,,,,,,,,,,,,,,,,,,,,,3.1991830840706825,None,191.0808755760081,215.88291472988203,215.89918908989057,None,224.8966908408329,None,241.89691029395908,264.8831829978153,264.89593856292777,None,288.8964993939735,None,,,,,,,,,,,,,,,,,,,,,,,,,,,,,,,,,,,,,,,,,,,,,,,,,,,,,,,,,,,,,,,,,,,,,,,,,,,,,001,26,2019_Nov_12_1537,viewing,3.1.2,60.07964310456286,
north.png,stims/wedding-38.1a.mp4,stims/wedding-38.1b.mp4,stims/wedding-38.2b.mp4,stims/wedding-38.3b.mp4,stims/wedding-38.4b.mp4,stims/wedding-38.5.mp4,stimsday2details/newpainting14.png,stimsday2details/painting38.png,stimsday2details/couple38.png,stimsday2details/newperson26.png,stimsday2details/new26.png,stimsday2details/gift38.png,stimsday2details/cn38.png,stimsday2details/n38.png,stimsday2details/t38.png,stimsday2details/ct38.png,0,1,1,1,,,,,,,,,,,,,0,0,0,0,,,,,,,,,,,,,,,,,,,,,,,,,,,,,,,None,None,None,None,None,None,None,None,None,None,None,None,None,None,None,None,None,None,None,,None,None,None,,None,None,,,,,,,,,,,,,,,,,,,,,,,,,,,,,,,,,,,,,,,,,,,,,,,,,,,001,26,2019_Nov_12_1537,viewing,3.1.2,60.07964310456286,
north.png,stims/wedding-38.1a.mp4,stims/wedding-38.1b.mp4,stims/wedding-38.2b.mp4,stims/wedding-38.3b.mp4,stims/wedding-38.4b.mp4,stims/wedding-38.5.mp4,stimsday2details/newpainting14.png,stimsday2details/painting38.png,stimsday2details/couple38.png,stimsday2details/newperson26.png,stimsday2details/new26.png,stimsday2details/gift38.png,stimsday2details/cn38.png,stimsday2details/n38.png,stimsday2details/t38.png,stimsday2details/ct38.png,0,1,1,1,,,,,,,,,,,,,,,,,,,,,,,,,,,,,,,,,,,,,,,,,,,,,,,,,,,,,,,,,,,,,,,,,,,,,,,,,2.5792047381401062e-05,None,2,0.9371405518613756,312.5478501119651,None,312.5478501119651,None,312.5478501119651,None,314.54528597695753,None,2,0.7892893909011036,314.54528597695753,None,314.54528597695753,None,316.55010717594996,None,316.55010717594996,None,1,0.8356843811925501,316.55010717594996,None,1,0.9508281289599836,318.5461156789679,None,318.5461156789679,None,318.5461156789679,None,320.54620257392526,None,320.54620257392526,None,2,0.7516701559070498,320.54620257392526,None,322.5462018218823,None,322.5462018218823,None,1,0.739375086966902,322.5462018218823,None,001,26,2019_Nov_12_1537,viewing,3.1.2,60.07964310456286,
north.png,stims/wedding-20.1a.mp4,stims/wedding-20.1b.mp4,stims/wedding-20.2a.mp4,stims/wedding-20.3a.mp4,stims/wedding-20.4a.mp4,stims/wedding-20.5.mp4,stimsday2details/egg20.png,stimsday2details/newegg13.png,stimsday2details/newperson27.png,stimsday2details/couple20.png,stimsday2details/gift20.png,stimsday2details/new27.png,stimsday2details/cn20.png,stimsday2details/n20.png,stimsday2details/ct20.png,stimsday2details/t20.png,0,2,2,2,0,0,0,0,,,,,,,,,,,,,,,,,,,,,,,,,None,None,,,,,,,,,,,,,,,,,,,,,,,,,,,,,,,,,,,,,,,,,,,,,,,,,,,,,,,,,,,,,,,,,,,,,,,,,,,,,,,,,,,,,,,,,,,,,001,26,2019_Nov_12_1537,viewing,3.1.2,60.07964310456286,
north.png,stims/wedding-20.1a.mp4,stims/wedding-20.1b.mp4,stims/wedding-20.2a.mp4,stims/wedding-20.3a.mp4,stims/wedding-20.4a.mp4,stims/wedding-20.5.mp4,stimsday2details/egg20.png,stimsday2details/newegg13.png,stimsday2details/newperson27.png,stimsday2details/couple20.png,stimsday2details/gift20.png,stimsday2details/new27.png,stimsday2details/cn20.png,stimsday2details/n20.png,stimsday2details/ct20.png,stimsday2details/t20.png,0,2,2,2,,,,,0,0,0,0,,,,,,,,,,,,,,,,,,,,,,,324.61192630580626,None,,,,,,,,,,,,,,,,,,,,,,,,,,,,,,,,,,,,,,,,,,,,,,,,,,,,,,,,,,,,,,,,,,,,,,,,,,,,,,,,,,,,,,,,,,,001,26,2019_Nov_12_1537,viewing,3.1.2,60.07964310456286,
north.png,stims/wedding-20.1a.mp4,stims/wedding-20.1b.mp4,stims/wedding-20.2a.mp4,stims/wedding-20.3a.mp4,stims/wedding-20.4a.mp4,stims/wedding-20.5.mp4,stimsday2details/egg20.png,stimsday2details/newegg13.png,stimsday2details/newperson27.png,stimsday2details/couple20.png,stimsday2details/gift20.png,stimsday2details/new27.png,stimsday2details/cn20.png,stimsday2details/n20.png,stimsday2details/ct20.png,stimsday2details/t20.png,0,2,2,2,,,,,,,,,0,0,0,0,,,,,,,,,,,,,,,,,,,,,2.997001479147002,None,334.67882878286764,359.6945308907889,359.6945308907889,None,368.69578513898887,None,385.69488938478753,408.69528402900323,408.69528402900323,432.69476582692005,432.69476582692005,None,,,,,,,,,,,,,,,,,,,,,,,,,,,,,,,,,,,,,,,,,,,,,,,,,,,,,,,,,,,,,,,,,,,,,,,,,,,,,001,26,2019_Nov_12_1537,viewing,3.1.2,60.07964310456286,
north.png,stims/wedding-20.1a.mp4,stims/wedding-20.1b.mp4,stims/wedding-20.2a.mp4,stims/wedding-20.3a.mp4,stims/wedding-20.4a.mp4,stims/wedding-20.5.mp4,stimsday2details/egg20.png,stimsday2details/newegg13.png,stimsday2details/newperson27.png,stimsday2details/couple20.png,stimsday2details/gift20.png,stimsday2details/new27.png,stimsday2details/cn20.png,stimsday2details/n20.png,stimsday2details/ct20.png,stimsday2details/t20.png,0,2,2,2,,,,,,,,,,,,,0,0,0,0,,,,,,,,,,,,,,,,,,,,,,,,,,,,,,,None,None,None,None,None,None,None,None,None,None,None,None,None,None,None,None,None,None,None,,None,None,None,,None,None,,,,,,,,,,,,,,,,,,,,,,,,,,,,,,,,,,,,,,,,,,,,,,,,,,,001,26,2019_Nov_12_1537,viewing,3.1.2,60.07964310456286,
north.png,stims/wedding-20.1a.mp4,stims/wedding-20.1b.mp4,stims/wedding-20.2a.mp4,stims/wedding-20.3a.mp4,stims/wedding-20.4a.mp4,stims/wedding-20.5.mp4,stimsday2details/egg20.png,stimsday2details/newegg13.png,stimsday2details/newperson27.png,stimsday2details/couple20.png,stimsday2details/gift20.png,stimsday2details/new27.png,stimsday2details/cn20.png,stimsday2details/n20.png,stimsday2details/ct20.png,stimsday2details/t20.png,0,2,2,2,,,,,,,,,,,,,,,,,,,,,,,,,,,,,,,,,,,,,,,,,,,,,,,,,,,,,,,,,,,,,,,,,,,,,,,,,3.4814001992344856e-05,None,2,0.9353942899033427,455.34423922980204,None,455.34423922980204,None,455.34423922980204,None,457.327013453003,None,1,0.6228033360093832,457.327013453003,None,457.327013453003,None,459.33178777690046,None,459.33178777690046,None,2,1.0812330089975148,459.33178777690046,None,2,1.3352495790459216,461.33092366391793,None,461.33092366391793,None,461.33092366391793,None,463.32783729978837,None,463.32783729978837,None,1,0.5894412091001868,463.32783729978837,None,465.3320263607893,None,465.3320263607893,None,1,0.9182085581123829,465.3320263607893,None,001,26,2019_Nov_12_1537,viewing,3.1.2,60.07964310456286,
south.png,stims/wedding-29.1a.mp4,stims/wedding-29.1b.mp4,stims/wedding-29.2a.mp4,stims/wedding-29.3b.mp4,stims/wedding-29.4a.mp4,stims/wedding-29.5.mp4,stimsday2details/egg29.png,stimsday2details/newegg14.png,stimsday2details/newperson28.png,stimsday2details/couple29.png,stimsday2details/gift29.png,stimsday2details/new28.png,stimsday2details/n29.png,stimsday2details/cn29.png,stimsday2details/ct29.png,stimsday2details/t29.png,0,3,3,3,0,0,0,0,,,,,,,,,,,,,,,,,,,,,,,,,467.33196828281507,None,,,,,,,,,,,,,,,,,,,,,,,,,,,,,,,,,,,,,,,,,,,,,,,,,,,,,,,,,,,,,,,,,,,,,,,,,,,,,,,,,,,,,,,,,,,,,001,26,2019_Nov_12_1537,viewing,3.1.2,60.07964310456286,
south.png,stims/wedding-29.1a.mp4,stims/wedding-29.1b.mp4,stims/wedding-29.2a.mp4,stims/wedding-29.3b.mp4,stims/wedding-29.4a.mp4,stims/wedding-29.5.mp4,stimsday2details/egg29.png,stimsday2details/newegg14.png,stimsday2details/newperson28.png,stimsday2details/couple29.png,stimsday2details/gift29.png,stimsday2details/new28.png,stimsday2details/n29.png,stimsday2details/cn29.png,stimsday2details/ct29.png,stimsday2details/t29.png,0,3,3,3,,,,,0,0,0,0,,,,,,,,,,,,,,,,,,,,,,,None,None,,,,,,,,,,,,,,,,,,,,,,,,,,,,,,,,,,,,,,,,,,,,,,,,,,,,,,,,,,,,,,,,,,,,,,,,,,,,,,,,,,,,,,,,,,,001,26,2019_Nov_12_1537,viewing,3.1.2,60.07964310456286,
south.png,stims/wedding-29.1a.mp4,stims/wedding-29.1b.mp4,stims/wedding-29.2a.mp4,stims/wedding-29.3b.mp4,stims/wedding-29.4a.mp4,stims/wedding-29.5.mp4,stimsday2details/egg29.png,stimsday2details/newegg14.png,stimsday2details/newperson28.png,stimsday2details/couple29.png,stimsday2details/gift29.png,stimsday2details/new28.png,stimsday2details/n29.png,stimsday2details/cn29.png,stimsday2details/ct29.png,stimsday2details/t29.png,0,3,3,3,,,,,,,,,0,0,0,0,,,,,,,,,,,,,,,,,,,,,3.2092981848400086,None,477.72708074678667,502.5131882489659,502.5274373439606,None,511.52695377683267,None,528.5271049358416,551.513517083833,551.5261244638823,None,575.5257115829736,None,,,,,,,,,,,,,,,,,,,,,,,,,,,,,,,,,,,,,,,,,,,,,,,,,,,,,,,,,,,,,,,,,,,,,,,,,,,,,001,26,2019_Nov_12_1537,viewing,3.1.2,60.07964310456286,
south.png,stims/wedding-29.1a.mp4,stims/wedding-29.1b.mp4,stims/wedding-29.2a.mp4,stims/wedding-29.3b.mp4,stims/wedding-29.4a.mp4,stims/wedding-29.5.mp4,stimsday2details/egg29.png,stimsday2details/newegg14.png,stimsday2details/newperson28.png,stimsday2details/couple29.png,stimsday2details/gift29.png,stimsday2details/new28.png,stimsday2details/n29.png,stimsday2details/cn29.png,stimsday2details/ct29.png,stimsday2details/t29.png,0,3,3,3,,,,,,,,,,,,,0,0,0,0,,,,,,,,,,,,,,,,,,,,,,,,,,,,,,,None,None,None,None,None,None,None,None,None,None,None,None,None,None,None,None,None,None,None,,None,None,None,,None,None,,,,,,,,,,,,,,,,,,,,,,,,,,,,,,,,,,,,,,,,,,,,,,,,,,,001,26,2019_Nov_12_1537,viewing,3.1.2,60.07964310456286,
south.png,stims/wedding-29.1a.mp4,stims/wedding-29.1b.mp4,stims/wedding-29.2a.mp4,stims/wedding-29.3b.mp4,stims/wedding-29.4a.mp4,stims/wedding-29.5.mp4,stimsday2details/egg29.png,stimsday2details/newegg14.png,stimsday2details/newperson28.png,stimsday2details/couple29.png,stimsday2details/gift29.png,stimsday2details/new28.png,stimsday2details/n29.png,stimsday2details/cn29.png,stimsday2details/ct29.png,stimsday2details/t29.png,0,3,3,3,,,,,,,,,,,,,,,,,,,,,,,,,,,,,,,,,,,,,,,,,,,,,,,,,,,,,,,,,,,,,,,,,,,,,,,,,4.3964944779872894e-05,None,1,0.6193923461250961,598.991595099913,None,598.991595099913,None,598.991595099913,None,600.9926163209602,None,1,0.6849914179183543,600.9926163209602,None,600.9926163209602,None,602.9917456838302,None,602.9917456838302,None,2,0.7193407891318202,602.9917456838302,None,2,1.1383573568891734,604.9927840249147,None,604.9927840249147,None,604.9927840249147,None,606.9956911029294,None,606.9956911029294,None,1,0.6153239118866622,606.9956911029294,None,608.9924894629512,None,608.9924894629512,None,2,1.152223224984482,608.9924894629512,None,001,26,2019_Nov_12_1537,viewing,3.1.2,60.07964310456286,
south.png,stims/wedding-19.1a.mp4,stims/wedding-19.1b.mp4,stims/wedding-19.2b.mp4,stims/wedding-19.3a.mp4,stims/wedding-19.4b.mp4,stims/wedding-19.5.mp4,stimsday2details/painting19.png,stimsday2details/newpainting15.png,stimsday2details/newperson29.png,stimsday2details/couple19.png,stimsday2details/new29.png,stimsday2details/gift19.png,stimsday2details/n19.png,stimsday2details/cn19.png,stimsday2details/ct19.png,stimsday2details/t19.png,0,4,4,4,0,0,0,0,,,,,,,,,,,,,,,,,,,,,,,,,610.9913388888817,None,,,,,,,,,,,,,,,,,,,,,,,,,,,,,,,,,,,,,,,,,,,,,,,,,,,,,,,,,,,,,,,,,,,,,,,,,,,,,,,,,,,,,,,,,,,,,001,26,2019_Nov_12_1537,viewing,3.1.2,60.07964310456286,
south.png,stims/wedding-19.1a.mp4,stims/wedding-19.1b.mp4,stims/wedding-19.2b.mp4,stims/wedding-19.3a.mp4,stims/wedding-19.4b.mp4,stims/wedding-19.5.mp4,stimsday2details/painting19.png,stimsday2details/newpainting15.png,stimsday2details/newperson29.png,stimsday2details/couple19.png,stimsday2details/new29.png,stimsday2details/gift19.png,stimsday2details/n19.png,stimsday2details/cn19.png,stimsday2details/ct19.png,stimsday2details/t19.png,0,4,4,4,,,,,0,0,0,0,,,,,,,,,,,,,,,,,,,,,,,None,None,,,,,,,,,,,,,,,,,,,,,,,,,,,,,,,,,,,,,,,,,,,,,,,,,,,,,,,,,,,,,,,,,,,,,,,,,,,,,,,,,,,,,,,,,,,001,26,2019_Nov_12_1537,viewing,3.1.2,60.07964310456286,
south.png,stims/wedding-19.1a.mp4,stims/wedding-19.1b.mp4,stims/wedding-19.2b.mp4,stims/wedding-19.3a.mp4,stims/wedding-19.4b.mp4,stims/wedding-19.5.mp4,stimsday2details/painting19.png,stimsday2details/newpainting15.png,stimsday2details/newperson29.png,stimsday2details/couple19.png,stimsday2details/new29.png,stimsday2details/gift19.png,stimsday2details/n19.png,stimsday2details/cn19.png,stimsday2details/ct19.png,stimsday2details/t19.png,0,4,4,4,,,,,,,,,0,0,0,0,,,,,,,,,,,,,,,,,,,,,3.102261498104781,None,621.3248310838826,646.2242311569862,646.2409544750117,None,655.2252541868947,672.2248157069553,672.2248157069553,695.2278117239475,695.241664118832,None,719.2411183807999,None,,,,,,,,,,,,,,,,,,,,,,,,,,,,,,,,,,,,,,,,,,,,,,,,,,,,,,,,,,,,,,,,,,,,,,,,,,,,,001,26,2019_Nov_12_1537,viewing,3.1.2,60.07964310456286,
south.png,stims/wedding-19.1a.mp4,stims/wedding-19.1b.mp4,stims/wedding-19.2b.mp4,stims/wedding-19.3a.mp4,stims/wedding-19.4b.mp4,stims/wedding-19.5.mp4,stimsday2details/painting19.png,stimsday2details/newpainting15.png,stimsday2details/newperson29.png,stimsday2details/couple19.png,stimsday2details/new29.png,stimsday2details/gift19.png,stimsday2details/n19.png,stimsday2details/cn19.png,stimsday2details/ct19.png,stimsday2details/t19.png,0,4,4,4,,,,,,,,,,,,,0,0,0,0,,,,,,,,,,,,,,,,,,,,,,,,,,,,,,,None,None,None,None,None,None,None,None,None,None,None,None,None,None,None,None,None,None,None,,None,None,None,,None,None,,,,,,,,,,,,,,,,,,,,,,,,,,,,,,,,,,,,,,,,,,,,,,,,,,,001,26,2019_Nov_12_1537,viewing,3.1.2,60.07964310456286,
south.png,stims/wedding-19.1a.mp4,stims/wedding-19.1b.mp4,stims/wedding-19.2b.mp4,stims/wedding-19.3a.mp4,stims/wedding-19.4b.mp4,stims/wedding-19.5.mp4,stimsday2details/painting19.png,stimsday2details/newpainting15.png,stimsday2details/newperson29.png,stimsday2details/couple19.png,stimsday2details/new29.png,stimsday2details/gift19.png,stimsday2details/n19.png,stimsday2details/cn19.png,stimsday2details/ct19.png,stimsday2details/t19.png,0,4,4,4,,,,,,,,,,,,,,,,,,,,,,,,,,,,,,,,,,,,,,,,,,,,,,,,,,,,,,,,,,,,,,,,,,,,,,,,,3.8499943912029266e-05,None,1,1.1022117210086435,743.4233066309243,None,743.4233066309243,None,743.4233066309243,None,745.4230765609536,None,1,0.9198105118703097,745.4230765609536,None,745.4230765609536,None,747.4231747039594,None,747.4231747039594,None,2,0.8191979981493205,747.4231747039594,None,2,1.1392907020635903,749.4234914409462,None,749.4234914409462,None,749.4234914409462,None,751.4272172458004,None,751.4272172458004,None,2,1.130897531984374,751.4272172458004,None,753.4232264528982,None,753.4232264528982,None,2,1.0224663380067796,753.4232264528982,None,001,26,2019_Nov_12_1537,viewing,3.1.2,60.07964310456286,
north.png,stims/wedding-23.1a.mp4,stims/wedding-23.1b.mp4,stims/wedding-23.2b.mp4,stims/wedding-23.3b.mp4,stims/wedding-23.4b.mp4,stims/wedding-23.5.mp4,stimsday2details/newpainting16.png,stimsday2details/painting23.png,stimsday2details/couple23.png,stimsday2details/newperson30.png,stimsday2details/new30.png,stimsday2details/gift23.png,stimsday2details/cn23.png,stimsday2details/n23.png,stimsday2details/t23.png,stimsday2details/ct23.png,0,5,5,5,0,0,0,0,,,,,,,,,,,,,,,,,,,,,,,,,None,None,,,,,,,,,,,,,,,,,,,,,,,,,,,,,,,,,,,,,,,,,,,,,,,,,,,,,,,,,,,,,,,,,,,,,,,,,,,,,,,,,,,,,,,,,,,,,001,26,2019_Nov_12_1537,viewing,3.1.2,60.07964310456286,
north.png,stims/wedding-23.1a.mp4,stims/wedding-23.1b.mp4,stims/wedding-23.2b.mp4,stims/wedding-23.3b.mp4,stims/wedding-23.4b.mp4,stims/wedding-23.5.mp4,stimsday2details/newpainting16.png,stimsday2details/painting23.png,stimsday2details/couple23.png,stimsday2details/newperson30.png,stimsday2details/new30.png,stimsday2details/gift23.png,stimsday2details/cn23.png,stimsday2details/n23.png,stimsday2details/t23.png,stimsday2details/ct23.png,0,5,5,5,,,,,0,0,0,0,,,,,,,,,,,,,,,,,,,,,,,755.5573204928078,None,,,,,,,,,,,,,,,,,,,,,,,,,,,,,,,,,,,,,,,,,,,,,,,,,,,,,,,,,,,,,,,,,,,,,,,,,,,,,,,,,,,,,,,,,,,001,26,2019_Nov_12_1537,viewing,3.1.2,60.07964310456286,
north.png,stims/wedding-23.1a.mp4,stims/wedding-23.1b.mp4,stims/wedding-23.2b.mp4,stims/wedding-23.3b.mp4,stims/wedding-23.4b.mp4,stims/wedding-23.5.mp4,stimsday2details/newpainting16.png,stimsday2details/painting23.png,stimsday2details/couple23.png,stimsday2details/newperson30.png,stimsday2details/new30.png,stimsday2details/gift23.png,stimsday2details/cn23.png,stimsday2details/n23.png,stimsday2details/t23.png,stimsday2details/ct23.png,0,5,5,5,,,,,,,,,0,0,0,0,,,,,,,,,,,,,,,,,,,,,3.1878071178216487,None,765.8900672188029,790.7068371009082,790.7068371009082,None,799.7069673889782,None,816.7067686689552,839.7063320339657,839.7063320339657,None,863.7059384027962,None,,,,,,,,,,,,,,,,,,,,,,,,,,,,,,,,,,,,,,,,,,,,,,,,,,,,,,,,,,,,,,,,,,,,,,,,,,,,,001,26,2019_Nov_12_1537,viewing,3.1.2,60.07964310456286,
north.png,stims/wedding-23.1a.mp4,stims/wedding-23.1b.mp4,stims/wedding-23.2b.mp4,stims/wedding-23.3b.mp4,stims/wedding-23.4b.mp4,stims/wedding-23.5.mp4,stimsday2details/newpainting16.png,stimsday2details/painting23.png,stimsday2details/couple23.png,stimsday2details/newperson30.png,stimsday2details/new30.png,stimsday2details/gift23.png,stimsday2details/cn23.png,stimsday2details/n23.png,stimsday2details/t23.png,stimsday2details/ct23.png,0,5,5,5,,,,,,,,,,,,,0,0,0,0,,,,,,,,,,,,,,,,,,,,,,,,,,,,,,,None,None,None,None,None,None,None,None,None,None,None,None,None,None,None,None,None,None,None,,None,None,None,,None,None,,,,,,,,,,,,,,,,,,,,,,,,,,,,,,,,,,,,,,,,,,,,,,,,,,,001,26,2019_Nov_12_1537,viewing,3.1.2,60.07964310456286,
north.png,stims/wedding-23.1a.mp4,stims/wedding-23.1b.mp4,stims/wedding-23.2b.mp4,stims/wedding-23.3b.mp4,stims/wedding-23.4b.mp4,stims/wedding-23.5.mp4,stimsday2details/newpainting16.png,stimsday2details/painting23.png,stimsday2details/couple23.png,stimsday2details/newperson30.png,stimsday2details/new30.png,stimsday2details/gift23.png,stimsday2details/cn23.png,stimsday2details/n23.png,stimsday2details/t23.png,stimsday2details/ct23.png,0,5,5,5,,,,,,,,,,,,,,,,,,,,,,,,,,,,,,,,,,,,,,,,,,,,,,,,,,,,,,,,,,,,,,,,,,,,,,,,,4.416494630277157e-05,None,2,0.6857364380266517,888.092186541995,None,888.092186541995,None,888.092186541995,None,890.0880474608857,None,2,0.9347105449996889,890.0880474608857,None,890.0880474608857,None,892.0880326488987,None,892.0880326488987,None,1,0.6690206520725042,892.0880326488987,None,1,1.1891403659246862,894.0890017359052,None,894.0890017359052,None,894.0890017359052,None,896.0889546989929,None,896.0889546989929,None,2,0.8387783451471478,896.0889546989929,None,898.0891469370108,None,898.0891469370108,None,1,0.9181518079712987,898.0891469370108,None,001,26,2019_Nov_12_1537,viewing,3.1.2,60.07964310456286,
north.png,stims/wedding-34.1a.mp4,stims/wedding-34.1b.mp4,stims/wedding-34.2a.mp4,stims/wedding-34.3a.mp4,stims/wedding-34.4a.mp4,stims/wedding-34.5.mp4,stimsday2details/newegg15.png,stimsday2details/egg34.png,stimsday2details/couple34.png,stimsday2details/newperson31.png,stimsday2details/gift34.png,stimsday2details/new31.png,stimsday2details/cn34.png,stimsday2details/n34.png,stimsday2details/t34.png,stimsday2details/ct34.png,0,6,6,6,0,0,0,0,,,,,,,,,,,,,,,,,,,,,,,,,None,None,,,,,,,,,,,,,,,,,,,,,,,,,,,,,,,,,,,,,,,,,,,,,,,,,,,,,,,,,,,,,,,,,,,,,,,,,,,,,,,,,,,,,,,,,,,,,001,26,2019_Nov_12_1537,viewing,3.1.2,60.07964310456286,
north.png,stims/wedding-34.1a.mp4,stims/wedding-34.1b.mp4,stims/wedding-34.2a.mp4,stims/wedding-34.3a.mp4,stims/wedding-34.4a.mp4,stims/wedding-34.5.mp4,stimsday2details/newegg15.png,stimsday2details/egg34.png,stimsday2details/couple34.png,stimsday2details/newperson31.png,stimsday2details/gift34.png,stimsday2details/new31.png,stimsday2details/cn34.png,stimsday2details/n34.png,stimsday2details/t34.png,stimsday2details/ct34.png,0,6,6,6,,,,,0,0,0,0,,,,,,,,,,,,,,,,,,,,,,,900.2386407998856,None,,,,,,,,,,,,,,,,,,,,,,,,,,,,,,,,,,,,,,,,,,,,,,,,,,,,,,,,,,,,,,,,,,,,,,,,,,,,,,,,,,,,,,,,,,,001,26,2019_Nov_12_1537,viewing,3.1.2,60.07964310456286,
north.png,stims/wedding-34.1a.mp4,stims/wedding-34.1b.mp4,stims/wedding-34.2a.mp4,stims/wedding-34.3a.mp4,stims/wedding-34.4a.mp4,stims/wedding-34.5.mp4,stimsday2details/newegg15.png,stimsday2details/egg34.png,stimsday2details/couple34.png,stimsday2details/newperson31.png,stimsday2details/gift34.png,stimsday2details/new31.png,stimsday2details/cn34.png,stimsday2details/n34.png,stimsday2details/t34.png,stimsday2details/ct34.png,0,6,6,6,,,,,,,,,0,0,0,0,,,,,,,,,,,,,,,,,,,,,3.1568220912013203,None,910.7886360757984,935.621699731797,935.6375691799913,None,944.6382911449764,None,961.6373314599041,None,984.6377800228074,1008.623666733969,1008.6408884979319,None,,,,,,,,,,,,,,,,,,,,,,,,,,,,,,,,,,,,,,,,,,,,,,,,,,,,,,,,,,,,,,,,,,,,,,,,,,,,,001,26,2019_Nov_12_1537,viewing,3.1.2,60.07964310456286,
north.png,stims/wedding-34.1a.mp4,stims/wedding-34.1b.mp4,stims/wedding-34.2a.mp4,stims/wedding-34.3a.mp4,stims/wedding-34.4a.mp4,stims/wedding-34.5.mp4,stimsday2details/newegg15.png,stimsday2details/egg34.png,stimsday2details/couple34.png,stimsday2details/newperson31.png,stimsday2details/gift34.png,stimsday2details/new31.png,stimsday2details/cn34.png,stimsday2details/n34.png,stimsday2details/t34.png,stimsday2details/ct34.png,0,6,6,6,,,,,,,,,,,,,0,0,0,0,,,,,,,,,,,,,,,,,,,,,,,,,,,,,,,None,None,None,None,None,None,None,None,None,None,None,None,None,None,None,None,None,None,None,,None,None,None,,None,None,,,,,,,,,,,,,,,,,,,,,,,,,,,,,,,,,,,,,,,,,,,,,,,,,,,001,26,2019_Nov_12_1537,viewing,3.1.2,60.07964310456286,
north.png,stims/wedding-34.1a.mp4,stims/wedding-34.1b.mp4,stims/wedding-34.2a.mp4,stims/wedding-34.3a.mp4,stims/wedding-34.4a.mp4,stims/wedding-34.5.mp4,stimsday2details/newegg15.png,stimsday2details/egg34.png,stimsday2details/couple34.png,stimsday2details/newperson31.png,stimsday2details/gift34.png,stimsday2details/new31.png,stimsday2details/cn34.png,stimsday2details/n34.png,stimsday2details/t34.png,stimsday2details/ct34.png,0,6,6,6,,,,,,,,,,,,,,,,,,,,,,,,,,,,,,,,,,,,,,,,,,,,,,,,,,,,,,,,,,,,,,,,,,,,,,,,,3.0667055398225784e-05,None,2,0.5444161030463874,1032.2435844629072,None,1032.2435844629072,None,1032.2435844629072,None,1034.2359188778792,None,2,0.8020595340058208,1034.2359188778792,None,1034.2359188778792,None,1036.2359511139803,None,1036.2359511139803,None,1,0.47274194308556616,1036.2359511139803,None,1,1.5060573250520974,1038.2361939428374,None,1038.2361939428374,None,1038.2361939428374,None,1040.2412136958446,None,1040.2412136958446,None,1,1.068140062969178,1040.2412136958446,None,1042.235897829989,None,1042.235897829989,None,1,1.2232280320022255,1042.235897829989,None,001,26,2019_Nov_12_1537,viewing,3.1.2,60.07964310456286,
south.png,stims/wedding-2.1a.mp4,stims/wedding-2.1b.mp4,stims/wedding-2.2b.mp4,stims/wedding-2.3a.mp4,stims/wedding-2.4b.mp4,stims/wedding-2.5.mp4,stimsday2details/painting2.png,stimsday2details/newpainting17.png,stimsday2details/newperson32.png,stimsday2details/couple2.png,stimsday2details/new32.png,stimsday2details/gift2.png,stimsday2details/cn2.png,stimsday2details/n2.png,stimsday2details/ct2.png,stimsday2details/t2.png,0,7,7,7,0,0,0,0,,,,,,,,,,,,,,,,,,,,,,,,,1044.2369986949489,None,,,,,,,,,,,,,,,,,,,,,,,,,,,,,,,,,,,,,,,,,,,,,,,,,,,,,,,,,,,,,,,,,,,,,,,,,,,,,,,,,,,,,,,,,,,,,001,26,2019_Nov_12_1537,viewing,3.1.2,60.07964310456286,
south.png,stims/wedding-2.1a.mp4,stims/wedding-2.1b.mp4,stims/wedding-2.2b.mp4,stims/wedding-2.3a.mp4,stims/wedding-2.4b.mp4,stims/wedding-2.5.mp4,stimsday2details/painting2.png,stimsday2details/newpainting17.png,stimsday2details/newperson32.png,stimsday2details/couple2.png,stimsday2details/new32.png,stimsday2details/gift2.png,stimsday2details/cn2.png,stimsday2details/n2.png,stimsday2details/ct2.png,stimsday2details/t2.png,0,7,7,7,,,,,0,0,0,0,,,,,,,,,,,,,,,,,,,,,,,None,None,,,,,,,,,,,,,,,,,,,,,,,,,,,,,,,,,,,,,,,,,,,,,,,,,,,,,,,,,,,,,,,,,,,,,,,,,,,,,,,,,,,,,,,,,,,001,26,2019_Nov_12_1537,viewing,3.1.2,60.07964310456286,
south.png,stims/wedding-2.1a.mp4,stims/wedding-2.1b.mp4,stims/wedding-2.2b.mp4,stims/wedding-2.3a.mp4,stims/wedding-2.4b.mp4,stims/wedding-2.5.mp4,stimsday2details/painting2.png,stimsday2details/newpainting17.png,stimsday2details/newperson32.png,stimsday2details/couple2.png,stimsday2details/new32.png,stimsday2details/gift2.png,stimsday2details/cn2.png,stimsday2details/n2.png,stimsday2details/ct2.png,stimsday2details/t2.png,0,7,7,7,,,,,,,,,0,0,0,0,,,,,,,,,,,,,,,,,,,,,3.018152897944674,None,1054.6191449558828,None,1079.6206595788244,None,1088.6199097628705,None,1105.6195026028436,1128.6021650959738,1128.6194134918042,1152.6063540019095,1152.6063540019095,None,,,,,,,,,,,,,,,,,,,,,,,,,,,,,,,,,,,,,,,,,,,,,,,,,,,,,,,,,,,,,,,,,,,,,,,,,,,,,001,26,2019_Nov_12_1537,viewing,3.1.2,60.07964310456286,
south.png,stims/wedding-2.1a.mp4,stims/wedding-2.1b.mp4,stims/wedding-2.2b.mp4,stims/wedding-2.3a.mp4,stims/wedding-2.4b.mp4,stims/wedding-2.5.mp4,stimsday2details/painting2.png,stimsday2details/newpainting17.png,stimsday2details/newperson32.png,stimsday2details/couple2.png,stimsday2details/new32.png,stimsday2details/gift2.png,stimsday2details/cn2.png,stimsday2details/n2.png,stimsday2details/ct2.png,stimsday2details/t2.png,0,7,7,7,,,,,,,,,,,,,0,0,0,0,,,,,,,,,,,,,,,,,,,,,,,,,,,,,,,None,None,None,None,None,None,None,None,None,None,None,None,None,None,None,None,None,None,None,,None,None,None,,None,None,,,,,,,,,,,,,,,,,,,,,,,,,,,,,,,,,,,,,,,,,,,,,,,,,,,001,26,2019_Nov_12_1537,viewing,3.1.2,60.07964310456286,
south.png,stims/wedding-2.1a.mp4,stims/wedding-2.1b.mp4,stims/wedding-2.2b.mp4,stims/wedding-2.3a.mp4,stims/wedding-2.4b.mp4,stims/wedding-2.5.mp4,stimsday2details/painting2.png,stimsday2details/newpainting17.png,stimsday2details/newperson32.png,stimsday2details/couple2.png,stimsday2details/new32.png,stimsday2details/gift2.png,stimsday2details/cn2.png,stimsday2details/n2.png,stimsday2details/ct2.png,stimsday2details/t2.png,0,7,7,7,,,,,,,,,,,,,,,,,,,,,,,,,,,,,,,,,,,,,,,,,,,,,,,,,,,,,,,,,,,,,,,,,,,,,,,,,3.624008968472481e-05,None,2,0.8393276780843735,1176.5520940017886,None,1176.5520940017886,None,1176.5520940017886,None,1178.5391537689138,None,1,0.6139334181789309,1178.5391537689138,None,1178.5391537689138,None,1180.5352791219484,None,1180.5352791219484,None,2,0.5682066020090133,1180.5352791219484,None,2,1.1901768168900162,1182.539254520787,None,1182.539254520787,None,1182.539254520787,None,1184.543693090789,None,1184.543693090789,None,2,0.8137354529462755,1184.543693090789,None,1186.5427926669363,None,1186.5427926669363,None,2,1.3479038069490343,1186.5427926669363,None,001,26,2019_Nov_12_1537,viewing,3.1.2,60.07964310456286,
south.png,stims/wedding-28.1a.mp4,stims/wedding-28.1b.mp4,stims/wedding-28.2a.mp4,stims/wedding-28.3b.mp4,stims/wedding-28.4a.mp4,stims/wedding-28.5.mp4,stimsday2details/egg28.png,stimsday2details/newegg16.png,stimsday2details/couple28.png,stimsday2details/newperson33.png,stimsday2details/gift28.png,stimsday2details/new33.png,stimsday2details/n28.png,stimsday2details/cn28.png,stimsday2details/t28.png,stimsday2details/ct28.png,0,8,8,8,0,0,0,0,,,,,,,,,,,,,,,,,,,,,,,,,1188.5379043249413,None,,,,,,,,,,,,,,,,,,,,,,,,,,,,,,,,,,,,,,,,,,,,,,,,,,,,,,,,,,,,,,,,,,,,,,,,,,,,,,,,,,,,,,,,,,,,,001,26,2019_Nov_12_1537,viewing,3.1.2,60.07964310456286,
south.png,stims/wedding-28.1a.mp4,stims/wedding-28.1b.mp4,stims/wedding-28.2a.mp4,stims/wedding-28.3b.mp4,stims/wedding-28.4a.mp4,stims/wedding-28.5.mp4,stimsday2details/egg28.png,stimsday2details/newegg16.png,stimsday2details/couple28.png,stimsday2details/newperson33.png,stimsday2details/gift28.png,stimsday2details/new33.png,stimsday2details/n28.png,stimsday2details/cn28.png,stimsday2details/t28.png,stimsday2details/ct28.png,0,8,8,8,,,,,0,0,0,0,,,,,,,,,,,,,,,,,,,,,,,None,None,,,,,,,,,,,,,,,,,,,,,,,,,,,,,,,,,,,,,,,,,,,,,,,,,,,,,,,,,,,,,,,,,,,,,,,,,,,,,,,,,,,,,,,,,,,001,26,2019_Nov_12_1537,viewing,3.1.2,60.07964310456286,
south.png,stims/wedding-28.1a.mp4,stims/wedding-28.1b.mp4,stims/wedding-28.2a.mp4,stims/wedding-28.3b.mp4,stims/wedding-28.4a.mp4,stims/wedding-28.5.mp4,stimsday2details/egg28.png,stimsday2details/newegg16.png,stimsday2details/couple28.png,stimsday2details/newperson33.png,stimsday2details/gift28.png,stimsday2details/new33.png,stimsday2details/n28.png,stimsday2details/cn28.png,stimsday2details/t28.png,stimsday2details/ct28.png,0,8,8,8,,,,,,,,,0,0,0,0,,,,,,,,,,,,,,,,,,,,,3.2218700470402837,None,1199.1672660619952,1223.9342997698113,1223.9507217698265,None,1232.950669365935,1249.9374933608342,1249.951311046956,1272.9371284199879,1272.9500261319336,1296.9364221778233,1296.9496362768114,None,,,,,,,,,,,,,,,,,,,,,,,,,,,,,,,,,,,,,,,,,,,,,,,,,,,,,,,,,,,,,,,,,,,,,,,,,,,,,001,26,2019_Nov_12_1537,viewing,3.1.2,60.07964310456286,
south.png,stims/wedding-28.1a.mp4,stims/wedding-28.1b.mp4,stims/wedding-28.2a.mp4,stims/wedding-28.3b.mp4,stims/wedding-28.4a.mp4,stims/wedding-28.5.mp4,stimsday2details/egg28.png,stimsday2details/newegg16.png,stimsday2details/couple28.png,stimsday2details/newperson33.png,stimsday2details/gift28.png,stimsday2details/new33.png,stimsday2details/n28.png,stimsday2details/cn28.png,stimsday2details/t28.png,stimsday2details/ct28.png,0,8,8,8,,,,,,,,,,,,,0,0,0,0,,,,,,,,,,,,,,,,,,,,,,,,,,,,,,,None,None,None,None,None,None,None,None,None,None,None,None,None,None,None,None,None,None,None,,None,None,None,,None,None,,,,,,,,,,,,,,,,,,,,,,,,,,,,,,,,,,,,,,,,,,,,,,,,,,,001,26,2019_Nov_12_1537,viewing,3.1.2,60.07964310456286,
south.png,stims/wedding-28.1a.mp4,stims/wedding-28.1b.mp4,stims/wedding-28.2a.mp4,stims/wedding-28.3b.mp4,stims/wedding-28.4a.mp4,stims/wedding-28.5.mp4,stimsday2details/egg28.png,stimsday2details/newegg16.png,stimsday2details/couple28.png,stimsday2details/newperson33.png,stimsday2details/gift28.png,stimsday2details/new33.png,stimsday2details/n28.png,stimsday2details/cn28.png,stimsday2details/t28.png,stimsday2details/ct28.png,0,8,8,8,,,,,,,,,,,,,,,,,,,,,,,,,,,,,,,,,,,,,,,,,,,,,,,,,,,,,,,,,,,,,,,,,,,,,,,,,4.370999522507191e-05,None,1,0.5228152947966009,1321.432941551786,None,1321.432941551786,None,1321.432941551786,None,1323.420890460955,None,1,0.6684209050145,1323.420890460955,None,1323.420890460955,None,1325.4250741279684,None,1325.4250741279684,None,1,0.6305916118435562,1325.4250741279684,None,1,0.8350507591385394,1327.4166117359418,None,1327.4166117359418,None,1327.4166117359418,None,1329.4164994829334,None,1329.4164994829334,None,1,0.8230927400290966,1329.4164994829334,None,1331.4165040138178,None,1331.4165040138178,None,2,1.7557553600054234,1331.4165040138178,None,001,26,2019_Nov_12_1537,viewing,3.1.2,60.07964310456286,
north.png,stims/wedding-6.1a.mp4,stims/wedding-6.1b.mp4,stims/wedding-6.2b.mp4,stims/wedding-6.3b.mp4,stims/wedding-6.4b.mp4,stims/wedding-6.5.mp4,stimsday2details/newpainting18.png,stimsday2details/painting6.png,stimsday2details/couple6.png,stimsday2details/newperson34.png,stimsday2details/new34.png,stimsday2details/gift6.png,stimsday2details/cn6.png,stimsday2details/n6.png,stimsday2details/t6.png,stimsday2details/ct6.png,0,9,9,9,0,0,0,0,,,,,,,,,,,,,,,,,,,,,,,,,None,None,,,,,,,,,,,,,,,,,,,,,,,,,,,,,,,,,,,,,,,,,,,,,,,,,,,,,,,,,,,,,,,,,,,,,,,,,,,,,,,,,,,,,,,,,,,,,001,26,2019_Nov_12_1537,viewing,3.1.2,60.07964310456286,
north.png,stims/wedding-6.1a.mp4,stims/wedding-6.1b.mp4,stims/wedding-6.2b.mp4,stims/wedding-6.3b.mp4,stims/wedding-6.4b.mp4,stims/wedding-6.5.mp4,stimsday2details/newpainting18.png,stimsday2details/painting6.png,stimsday2details/couple6.png,stimsday2details/newperson34.png,stimsday2details/new34.png,stimsday2details/gift6.png,stimsday2details/cn6.png,stimsday2details/n6.png,stimsday2details/t6.png,stimsday2details/ct6.png,0,9,9,9,,,,,0,0,0,0,,,,,,,,,,,,,,,,,,,,,,,1333.7873477458488,None,,,,,,,,,,,,,,,,,,,,,,,,,,,,,,,,,,,,,,,,,,,,,,,,,,,,,,,,,,,,,,,,,,,,,,,,,,,,,,,,,,,,,,,,,,,001,26,2019_Nov_12_1537,viewing,3.1.2,60.07964310456286,
north.png,stims/wedding-6.1a.mp4,stims/wedding-6.1b.mp4,stims/wedding-6.2b.mp4,stims/wedding-6.3b.mp4,stims/wedding-6.4b.mp4,stims/wedding-6.5.mp4,stimsday2details/newpainting18.png,stimsday2details/painting6.png,stimsday2details/couple6.png,stimsday2details/newperson34.png,stimsday2details/new34.png,stimsday2details/gift6.png,stimsday2details/cn6.png,stimsday2details/n6.png,stimsday2details/t6.png,stimsday2details/ct6.png,0,9,9,9,,,,,,,,,0,0,0,0,,,,,,,,,,,,,,,,,,,,,3.0707869599573314,None,1344.0827423608862,1369.0179964927956,1369.0179964927956,None,1378.0205434497911,None,1395.032490693964,1418.0174910868518,1418.0330103889573,None,1442.0320230268408,None,,,,,,,,,,,,,,,,,,,,,,,,,,,,,,,,,,,,,,,,,,,,,,,,,,,,,,,,,,,,,,,,,,,,,,,,,,,,,001,26,2019_Nov_12_1537,viewing,3.1.2,60.07964310456286,
north.png,stims/wedding-6.1a.mp4,stims/wedding-6.1b.mp4,stims/wedding-6.2b.mp4,stims/wedding-6.3b.mp4,stims/wedding-6.4b.mp4,stims/wedding-6.5.mp4,stimsday2details/newpainting18.png,stimsday2details/painting6.png,stimsday2details/couple6.png,stimsday2details/newperson34.png,stimsday2details/new34.png,stimsday2details/gift6.png,stimsday2details/cn6.png,stimsday2details/n6.png,stimsday2details/t6.png,stimsday2details/ct6.png,0,9,9,9,,,,,,,,,,,,,0,0,0,0,,,,,,,,,,,,,,,,,,,,,,,,,,,,,,,None,None,None,None,None,None,None,None,None,None,None,None,None,None,None,None,None,None,None,,None,None,None,,None,None,,,,,,,,,,,,,,,,,,,,,,,,,,,,,,,,,,,,,,,,,,,,,,,,,,,001,26,2019_Nov_12_1537,viewing,3.1.2,60.07964310456286,
north.png,stims/wedding-6.1a.mp4,stims/wedding-6.1b.mp4,stims/wedding-6.2b.mp4,stims/wedding-6.3b.mp4,stims/wedding-6.4b.mp4,stims/wedding-6.5.mp4,stimsday2details/newpainting18.png,stimsday2details/painting6.png,stimsday2details/couple6.png,stimsday2details/newperson34.png,stimsday2details/new34.png,stimsday2details/gift6.png,stimsday2details/cn6.png,stimsday2details/n6.png,stimsday2details/t6.png,stimsday2details/ct6.png,0,9,9,9,,,,,,,,,,,,,,,,,,,,,,,,,,,,,,,,,,,,,,,,,,,,,,,,,,,,,,,,,,,,,,,,,,,,,,,,,3.605196252465248e-05,None,2,1.0522618109825999,1466.064007650828,None,1466.064007650828,None,1466.064007650828,None,1468.0474386468995,None,2,0.7395373431500047,1468.0474386468995,None,1468.0474386468995,None,1470.0473929168656,None,1470.0473929168656,None,1,0.7407314910087734,1470.0473929168656,None,1,0.8852180500980467,1472.047651981935,None,1472.047651981935,None,1472.047651981935,None,1474.0477046058513,None,1474.0477046058513,None,2,0.8346916409209371,1474.0477046058513,None,1476.0476368640084,None,1476.0476368640084,None,1,1.4019981890451163,1476.0476368640084,None,001,26,2019_Nov_12_1537,viewing,3.1.2,60.07964310456286,
north.png,stims/wedding-17.1a.mp4,stims/wedding-17.1b.mp4,stims/wedding-17.2a.mp4,stims/wedding-17.3a.mp4,stims/wedding-17.4a.mp4,stims/wedding-17.5.mp4,stimsday2details/egg17.png,stimsday2details/newegg17.png,stimsday2details/newperson35.png,stimsday2details/couple17.png,stimsday2details/gift17.png,stimsday2details/new35.png,stimsday2details/cn17.png,stimsday2details/n17.png,stimsday2details/t17.png,stimsday2details/ct17.png,0,10,10,10,0,0,0,0,,,,,,,,,,,,,,,,,,,,,,,,,None,None,,,,,,,,,,,,,,,,,,,,,,,,,,,,,,,,,,,,,,,,,,,,,,,,,,,,,,,,,,,,,,,,,,,,,,,,,,,,,,,,,,,,,,,,,,,,,001,26,2019_Nov_12_1537,viewing,3.1.2,60.07964310456286,
north.png,stims/wedding-17.1a.mp4,stims/wedding-17.1b.mp4,stims/wedding-17.2a.mp4,stims/wedding-17.3a.mp4,stims/wedding-17.4a.mp4,stims/wedding-17.5.mp4,stimsday2details/egg17.png,stimsday2details/newegg17.png,stimsday2details/newperson35.png,stimsday2details/couple17.png,stimsday2details/gift17.png,stimsday2details/new35.png,stimsday2details/cn17.png,stimsday2details/n17.png,stimsday2details/t17.png,stimsday2details/ct17.png,0,10,10,10,,,,,0,0,0,0,,,,,,,,,,,,,,,,,,,,,,,1478.2973905878607,None,,,,,,,,,,,,,,,,,,,,,,,,,,,,,,,,,,,,,,,,,,,,,,,,,,,,,,,,,,,,,,,,,,,,,,,,,,,,,,,,,,,,,,,,,,,001,26,2019_Nov_12_1537,viewing,3.1.2,60.07964310456286,
north.png,stims/wedding-17.1a.mp4,stims/wedding-17.1b.mp4,stims/wedding-17.2a.mp4,stims/wedding-17.3a.mp4,stims/wedding-17.4a.mp4,stims/wedding-17.5.mp4,stimsday2details/egg17.png,stimsday2details/newegg17.png,stimsday2details/newperson35.png,stimsday2details/couple17.png,stimsday2details/gift17.png,stimsday2details/new35.png,stimsday2details/cn17.png,stimsday2details/n17.png,stimsday2details/t17.png,stimsday2details/ct17.png,0,10,10,10,,,,,,,,,0,0,0,0,,,,,,,,,,,,,,,,,,,,,3.1179362209513783,None,1488.6643852409907,None,1513.5646373168565,None,1522.5637226079125,1539.547329162946,1539.563013167819,None,1562.5640796148218,None,1586.5625557119492,None,,,,,,,,,,,,,,,,,,,,,,,,,,,,,,,,,,,,,,,,,,,,,,,,,,,,,,,,,,,,,,,,,,,,,,,,,,,,,001,26,2019_Nov_12_1537,viewing,3.1.2,60.07964310456286,
north.png,stims/wedding-17.1a.mp4,stims/wedding-17.1b.mp4,stims/wedding-17.2a.mp4,stims/wedding-17.3a.mp4,stims/wedding-17.4a.mp4,stims/wedding-17.5.mp4,stimsday2details/egg17.png,stimsday2details/newegg17.png,stimsday2details/newperson35.png,stimsday2details/couple17.png,stimsday2details/gift17.png,stimsday2details/new35.png,stimsday2details/cn17.png,stimsday2details/n17.png,stimsday2details/t17.png,stimsday2details/ct17.png,0,10,10,10,,,,,,,,,,,,,0,0,0,0,,,,,,,,,,,,,,,,,,,,,,,,,,,,,,,None,None,None,None,None,None,None,None,None,None,None,None,None,None,None,None,None,None,None,,None,None,None,,None,None,,,,,,,,,,,,,,,,,,,,,,,,,,,,,,,,,,,,,,,,,,,,,,,,,,,001,26,2019_Nov_12_1537,viewing,3.1.2,60.07964310456286,
north.png,stims/wedding-17.1a.mp4,stims/wedding-17.1b.mp4,stims/wedding-17.2a.mp4,stims/wedding-17.3a.mp4,stims/wedding-17.4a.mp4,stims/wedding-17.5.mp4,stimsday2details/egg17.png,stimsday2details/newegg17.png,stimsday2details/newperson35.png,stimsday2details/couple17.png,stimsday2details/gift17.png,stimsday2details/new35.png,stimsday2details/cn17.png,stimsday2details/n17.png,stimsday2details/t17.png,stimsday2details/ct17.png,0,10,10,10,,,,,,,,,,,,,,,,,,,,,,,,,,,,,,,,,,,,,,,,,,,,,,,,,,,,,,,,,,,,,,,,,,,,,,,,,2.6464927941560745e-05,None,2,1.0280863970983773,1610.6846683169715,None,1610.6846683169715,None,1610.6846683169715,None,1612.6786783819553,None,1,0.8193024378269911,1612.6786783819553,None,1612.6786783819553,None,1614.678628967842,None,1614.678628967842,None,2,0.8740671169944108,1614.678628967842,None,1,1.0018019990529865,1616.6801457628608,None,1616.6801457628608,None,1616.6801457628608,None,1618.678790657781,None,1618.678790657781,None,1,0.7894026970025152,1618.678790657781,None,1620.6795957149006,None,1620.6795957149006,None,None,,1620.6795957149006,None,001,26,2019_Nov_12_1537,viewing,3.1.2,60.07964310456286,
south.png,stims/wedding-1.1a.mp4,stims/wedding-1.1b.mp4,stims/wedding-1.2a.mp4,stims/wedding-1.3b.mp4,stims/wedding-1.4a.mp4,stims/wedding-1.5.mp4,stimsday2details/egg1.png,stimsday2details/newegg18.png,stimsday2details/couple1.png,stimsday2details/newperson36.png,stimsday2details/new36.png,stimsday2details/gift1.png,stimsday2details/cn1.png,stimsday2details/n1.png,stimsday2details/t1.png,stimsday2details/ct1.png,0,11,11,11,0,0,0,0,,,,,,,,,,,,,,,,,,,,,,,,,1622.6788015619386,None,,,,,,,,,,,,,,,,,,,,,,,,,,,,,,,,,,,,,,,,,,,,,,,,,,,,,,,,,,,,,,,,,,,,,,,,,,,,,,,,,,,,,,,,,,,,,001,26,2019_Nov_12_1537,viewing,3.1.2,60.07964310456286,
south.png,stims/wedding-1.1a.mp4,stims/wedding-1.1b.mp4,stims/wedding-1.2a.mp4,stims/wedding-1.3b.mp4,stims/wedding-1.4a.mp4,stims/wedding-1.5.mp4,stimsday2details/egg1.png,stimsday2details/newegg18.png,stimsday2details/couple1.png,stimsday2details/newperson36.png,stimsday2details/new36.png,stimsday2details/gift1.png,stimsday2details/cn1.png,stimsday2details/n1.png,stimsday2details/t1.png,stimsday2details/ct1.png,0,11,11,11,,,,,0,0,0,0,,,,,,,,,,,,,,,,,,,,,,,None,None,,,,,,,,,,,,,,,,,,,,,,,,,,,,,,,,,,,,,,,,,,,,,,,,,,,,,,,,,,,,,,,,,,,,,,,,,,,,,,,,,,,,,,,,,,,001,26,2019_Nov_12_1537,viewing,3.1.2,60.07964310456286,
south.png,stims/wedding-1.1a.mp4,stims/wedding-1.1b.mp4,stims/wedding-1.2a.mp4,stims/wedding-1.3b.mp4,stims/wedding-1.4a.mp4,stims/wedding-1.5.mp4,stimsday2details/egg1.png,stimsday2details/newegg18.png,stimsday2details/couple1.png,stimsday2details/newperson36.png,stimsday2details/new36.png,stimsday2details/gift1.png,stimsday2details/cn1.png,stimsday2details/n1.png,stimsday2details/t1.png,stimsday2details/ct1.png,0,11,11,11,,,,,,,,,0,0,0,0,,,,,,,,,,,,,,,,,,,,,None,None,None,None,None,None,None,None,None,None,None,None,None,None,,,,,,,,,,,,,,,,,,,,,,,,,,,,,,,,,,,,,,,,,,,,,,,,,,,,,,,,,,,,,,,,,,,,,,,,,,,,,001,26,2019_Nov_12_1537,viewing,3.1.2,60.07964310456286,
south.png,stims/wedding-1.1a.mp4,stims/wedding-1.1b.mp4,stims/wedding-1.2a.mp4,stims/wedding-1.3b.mp4,stims/wedding-1.4a.mp4,stims/wedding-1.5.mp4,stimsday2details/egg1.png,stimsday2details/newegg18.png,stimsday2details/couple1.png,stimsday2details/newperson36.png,stimsday2details/new36.png,stimsday2details/gift1.png,stimsday2details/cn1.png,stimsday2details/n1.png,stimsday2details/t1.png,stimsday2details/ct1.png,0,11,11,11,,,,,,,,,,,,,0,0,0,0,,,,,,,,,,,,,,,,,,,,,,,,,,,,,,,2.9878721330314875,None,1636.6950708839577,1661.6989389308728,1661.7127717419062,None,1670.7123073758557,1687.6957313797902,1687.716796577908,1691.6954691489227,1691.7121475019958,1714.6948529379442,1714.7153165489435,1718.6938968619797,1718.7116062899586,None,1742.7111656728666,None,"['2', '2']","[55.13864827295765, 2.0856841059867293]",1686.7121856498998,1691.6954691489227,['1'],[2.2564864789601415],1713.7110930769704,1718.6938968619797,,,,,,,,,,,,,,,,,,,,,,,,,,,,,,,,,,,,,,,,,,,,,,,,,,,001,26,2019_Nov_12_1537,viewing,3.1.2,60.07964310456286,
south.png,stims/wedding-1.1a.mp4,stims/wedding-1.1b.mp4,stims/wedding-1.2a.mp4,stims/wedding-1.3b.mp4,stims/wedding-1.4a.mp4,stims/wedding-1.5.mp4,stimsday2details/egg1.png,stimsday2details/newegg18.png,stimsday2details/couple1.png,stimsday2details/newperson36.png,stimsday2details/new36.png,stimsday2details/gift1.png,stimsday2details/cn1.png,stimsday2details/n1.png,stimsday2details/t1.png,stimsday2details/ct1.png,0,11,11,11,,,,,,,,,,,,,,,,,,,,,,,,,,,,,,,,,,,,,,,,,,,,,,,,,,,,,,,,,,,,,,,,,,,,,,,,,3.3700140193104744e-05,None,2,0.7460881790611893,1763.48378606583,None,1763.48378606583,None,1763.48378606583,None,1765.4779877518304,None,1,0.9518322760704905,1765.4779877518304,None,1765.4779877518304,None,1767.481848192867,None,1767.481848192867,None,1,0.8521249040495604,1767.481848192867,None,1,1.2021238799206913,1769.4814412829,None,1769.4814412829,None,1769.4814412829,None,1771.4814785658382,None,1771.4814785658382,None,2,0.864791173953563,1771.4814785658382,None,1773.480603801785,None,1773.480603801785,None,2,0.6076644170098007,1773.480603801785,None,001,26,2019_Nov_12_1537,viewing,3.1.2,60.07964310456286,
